# MRC CanSat GEN3 flight log
# $MRC,seq,ms,temp,hum,pres,alt,ax,ay,az,gx,gy,gz,lat,lng,spd,sat,chute*CRC16
$MRC,1,8683,30.23,76.7,1009.65,-0.1,0.001,0.001,0.913,0.07,0.22,0.03,0.00000,0.00000,0.0,0,0*F3A7
$MRC,2,9683,30.23,76.7,1009.62,0.1,-0.001,-0.001,0.916,-0.02,-0.07,0.12,0.00000,0.00000,0.0,0,0*BA32
$MRC,3,10683,30.24,76.7,1009.60,0.2,0.001,-0.002,0.919,-0.22,0.04,0.33,0.00000,0.00000,0.0,0,0*0946
$MRC,4,11683,30.24,76.7,1009.62,0.0,0.000,-0.003,0.920,0.04,-0.09,0.19,0.00000,0.00000,0.0,0,0*E203
$MRC,5,12683,30.24,76.7,1009.65,-0.2,-0.004,0.004,0.910,-0.07,-0.13,-0.05,0.00000,0.00000,0.0,0,0*B65F
$MRC,6,13683,30.24,76.7,1009.63,0.0,-0.001,-0.002,0.913,-0.02,0.16,0.15,0.00000,0.00000,0.0,0,0*1BBD
$MRC,7,14683,30.24,76.6,1009.63,-0.0,0.000,-0.004,0.917,-0.04,-0.07,0.03,0.00000,0.00000,0.0,0,0*3E34
$MRC,8,15683,30.25,76.6,1009.59,0.3,-0.001,0.001,0.911,-0.04,-0.04,0.15,0.00000,0.00000,0.0,0,0*6408
$MRC,9,16683,30.25,76.6,1009.64,-0.1,-0.002,0.001,0.911,-0.00,0.19,-0.07,0.00000,0.00000,0.0,0,0*325B
$MRC,10,17683,30.25,76.6,1009.60,0.2,-0.003,0.000,0.911,-0.26,0.13,0.19,0.00000,0.00000,0.0,0,0*C08E
$MRC,11,18683,30.25,76.6,1009.64,-0.1,0.000,0.001,0.916,-0.14,0.02,0.13,0.00000,0.00000,0.0,0,0*DC96
$MRC,12,19683,30.25,76.6,1009.62,0.0,0.000,-0.000,0.913,0.06,0.08,-0.02,0.00000,0.00000,0.0,0,0*9D4A
$MRC,13,20683,30.26,76.6,1009.63,-0.0,0.002,0.003,0.914,-0.13,0.24,-0.10,0.00000,0.00000,0.0,0,0*371A
$MRC,14,21683,30.26,76.6,1009.61,0.1,-0.006,0.017,0.922,-0.00,0.24,0.09,0.00000,0.00000,0.0,0,0*F1F5
$MRC,15,22683,30.26,76.6,1009.63,-0.1,0.004,-0.006,0.907,-0.00,-0.10,0.16,0.00000,0.00000,0.0,0,0*0680
$MRC,16,23683,30.26,76.6,1009.60,0.2,0.002,-0.013,0.944,0.35,-8.21,15.22,0.00000,0.00000,0.0,0,0*C88C
$MRC,17,24683,30.26,76.5,1009.59,0.3,0.194,-0.114,0.955,50.39,39.93,-77.52,0.00000,0.00000,0.0,0,0*CF8F
$MRC,18,25683,30.27,76.6,1009.59,0.4,-0.001,0.007,0.904,-0.29,0.02,0.32,0.00000,0.00000,0.0,0,0*D7D8
$MRC,19,26683,30.27,76.6,1009.61,0.2,0.019,0.007,0.890,-6.46,7.38,-0.97,0.00000,0.00000,0.0,0,0*B83D
$MRC,20,27683,30.27,76.6,1009.61,0.1,0.165,0.097,0.588,-1.85,3.23,1.37,0.00000,0.00000,0.0,0,0*F2F2
$MRC,21,28683,30.27,76.5,1009.60,0.2,0.016,-0.085,0.976,-1.12,-2.07,41.60,0.00000,0.00000,0.0,0,0*CF1F
$MRC,22,29683,30.28,76.6,1009.56,0.6,-0.010,0.039,0.952,-31.26,-3.02,106.67,0.00000,0.00000,0.0,0,0*EC70
$MRC,23,30683,30.29,76.6,1009.60,0.3,0.010,-0.198,0.983,-26.40,-18.18,10.88,0.00000,0.00000,0.0,0,0*3F4C
$MRC,24,31683,30.28,76.5,1009.59,0.3,0.064,-0.317,0.961,14.42,-9.14,49.74,0.00000,0.00000,0.0,0,0*709E
$MRC,25,32683,30.28,76.5,1009.57,0.5,0.063,-0.226,0.847,-5.30,4.72,28.51,0.00000,0.00000,0.0,0,0*B759
$MRC,26,33683,30.28,76.5,1009.56,0.5,0.070,-0.198,0.966,-0.95,11.01,-7.16,0.00000,0.00000,0.0,0,0*B438
$MRC,27,34683,30.26,76.5,1009.60,0.3,0.247,-0.337,0.811,-8.22,-36.28,32.99,0.00000,0.00000,0.0,0,0*B857
$MRC,28,35683,30.27,76.5,1009.60,0.2,0.108,-0.263,0.906,-16.86,57.14,-32.43,0.00000,0.00000,0.0,0,0*06E3
$MRC,29,36683,30.27,76.5,1009.59,0.3,0.043,-0.231,0.904,2.01,3.69,0.58,0.00000,0.00000,0.0,0,0*7CF4
$MRC,30,37683,30.28,76.5,1009.61,0.1,0.044,-0.259,0.895,0.36,0.08,0.15,0.00000,0.00000,0.0,0,0*0F94
$MRC,31,38683,30.28,76.6,1009.63,-0.0,0.047,-0.261,0.901,-0.20,0.02,-0.19,0.00000,0.00000,0.0,0,0*0A60
$MRC,32,39683,30.28,76.5,1009.62,0.0,0.046,-0.258,0.902,-0.25,0.25,0.19,0.00000,0.00000,0.0,0,0*014D
$MRC,33,40683,30.28,76.5,1009.61,0.1,0.046,-0.256,0.898,0.04,-0.13,0.03,0.00000,0.00000,0.0,0,0*1D68
$MRC,34,41683,30.28,76.5,1009.60,0.2,0.047,-0.258,0.902,-0.23,0.08,0.13,0.00000,0.00000,0.0,0,0*B48B
$MRC,35,42683,30.29,76.5,1009.63,-0.0,0.044,-0.258,0.902,-0.25,-0.15,0.18,0.00000,0.00000,0.0,0,0*FE98
$MRC,36,43683,30.29,76.5,1009.60,0.2,0.045,-0.259,0.907,-0.02,-0.05,0.30,0.00000,0.00000,0.0,0,0*CE11
$MRC,37,44683,30.30,76.5,1009.61,0.2,0.046,-0.259,0.905,-0.16,-0.19,0.09,0.00000,0.00000,0.0,0,0*EA4B
$MRC,38,45683,30.31,76.4,1009.62,0.1,0.043,-0.257,0.897,0.39,-0.15,0.24,0.00000,0.00000,0.0,0,0*6E6E
$MRC,39,46683,30.31,76.4,1009.60,0.2,0.044,-0.263,0.902,-0.10,-0.07,0.13,0.00000,0.00000,0.0,0,0*7614
$MRC,40,47683,30.31,76.4,1009.61,0.2,0.048,-0.262,0.899,0.15,0.13,-0.29,0.00000,0.00000,0.0,0,0*6B47
$MRC,41,48683,30.31,76.4,1009.60,0.2,0.048,-0.262,0.909,-0.07,-0.01,-0.00,0.00000,0.00000,0.0,0,0*8C50
$MRC,42,49683,30.33,76.4,1009.62,0.0,0.050,-0.253,0.904,0.06,0.25,-0.05,0.00000,0.00000,0.0,0,0*55B2
$MRC,43,50683,30.33,76.4,1009.59,0.3,0.048,-0.260,0.901,-0.00,-0.28,0.19,0.00000,0.00000,0.0,0,0*088E
$MRC,44,51683,30.33,76.4,1009.58,0.4,0.048,-0.260,0.894,-0.04,-0.09,0.24,0.00000,0.00000,0.0,0,0*2DF5
$MRC,45,52683,30.34,76.4,1009.61,0.1,0.043,-0.257,0.902,-0.02,-0.16,-0.02,0.00000,0.00000,0.0,0,0*56B6
$MRC,46,53683,30.35,76.4,1009.56,0.5,0.045,-0.254,0.902,-0.13,-0.09,-0.05,0.00000,0.00000,0.0,0,0*F9A2
$MRC,47,54683,30.35,76.3,1009.63,-0.0,0.050,-0.259,0.904,-0.13,0.04,-0.13,0.00000,0.00000,0.0,0,0*82A0
$MRC,48,55683,30.35,76.3,1009.60,0.3,0.046,-0.257,0.902,-0.11,0.34,0.03,0.00000,0.00000,0.0,0,0*9A34
$MRC,49,56683,30.36,76.3,1009.57,0.5,0.046,-0.261,0.903,-0.10,-0.24,-0.08,0.00000,0.00000,0.0,0,0*093B
$MRC,50,57683,30.37,76.3,1009.57,0.5,0.042,-0.258,0.901,0.13,-0.22,-0.16,0.00000,0.00000,0.0,0,0*DF0D
$MRC,51,58683,30.37,76.3,1009.58,0.4,0.045,-0.258,0.907,-0.04,-0.09,0.04,0.00000,0.00000,0.0,0,0*330E
$MRC,52,59683,30.38,76.4,1009.54,0.7,0.045,-0.256,0.906,-0.02,0.24,0.42,0.00000,0.00000,0.0,0,0*8B6F
$MRC,53,60683,30.39,76.3,1009.61,0.1,0.046,-0.256,0.897,-0.05,-0.10,0.06,0.00000,0.00000,0.0,0,0*D963
$MRC,54,61683,30.40,76.3,1009.56,0.6,0.052,-0.265,0.900,-0.25,0.22,0.21,0.00000,0.00000,0.0,0,0*734C
$MRC,55,62683,30.41,76.3,1009.58,0.4,0.047,-0.258,0.896,0.22,-0.02,0.10,0.00000,0.00000,0.0,0,0*517F
$MRC,56,63683,30.41,76.3,1009.57,0.4,0.044,-0.258,0.902,-0.13,-0.15,0.24,0.00000,0.00000,0.0,0,0*53CB
$MRC,57,64683,30.42,76.3,1009.59,0.3,0.049,-0.260,0.906,-0.00,-0.15,0.09,0.00000,0.00000,0.0,0,0*0504
$MRC,58,65683,30.42,76.2,1009.58,0.4,0.046,-0.258,0.903,-0.02,0.13,-0.16,0.00000,0.00000,0.0,0,0*FEAB
$MRC,59,66683,30.43,76.2,1009.59,0.3,0.045,-0.259,0.905,-0.16,0.01,-0.02,0.00000,0.00000,0.0,0,0*762D
$MRC,60,67683,30.43,76.2,1009.56,0.5,0.047,-0.260,0.904,-0.08,-0.10,-0.25,0.00000,0.00000,0.0,0,0*D519
$MRC,61,68683,30.45,76.2,1009.57,0.4,0.046,-0.257,0.905,-0.00,-0.10,0.16,0.00000,0.00000,0.0,0,0*905B
$MRC,62,69683,30.46,76.1,1009.59,0.3,0.049,-0.258,0.904,-0.17,-0.01,0.04,0.00000,0.00000,0.0,0,0*4794
$MRC,63,70683,30.47,76.1,1009.58,0.4,0.042,-0.260,0.902,-0.17,0.02,0.29,0.00000,0.00000,0.0,0,0*E526
$MRC,64,71683,30.47,76.1,1009.57,0.5,0.047,-0.259,0.905,-0.13,0.08,0.22,0.00000,0.00000,0.0,0,0*6E2A
$MRC,65,72683,30.48,76.1,1009.57,0.5,0.045,-0.259,0.900,-0.00,-0.04,0.27,0.00000,0.00000,0.0,0,0*1978
$MRC,66,73683,30.49,76.0,1009.55,0.6,0.045,-0.258,0.895,-0.31,0.04,0.21,0.00000,0.00000,0.0,0,0*04CD
$MRC,67,74683,30.50,76.0,1009.56,0.6,0.043,-0.258,0.896,0.21,-0.09,0.18,0.00000,0.00000,0.0,0,0*1BE5
$MRC,68,75683,30.51,76.0,1009.54,0.7,0.046,-0.259,0.904,0.12,0.04,0.10,0.00000,0.00000,0.0,0,0*42A0
$MRC,69,76683,30.52,76.1,1009.60,0.2,0.043,-0.259,0.910,0.09,-0.09,0.13,0.00000,0.00000,0.0,0,0*E59B
$MRC,70,77683,30.53,76.1,1009.59,0.3,0.045,-0.260,0.905,-0.11,0.16,0.13,0.00000,0.00000,0.0,0,0*5407
$MRC,71,78683,30.54,76.1,1009.60,0.2,0.052,-0.260,0.909,-0.07,0.13,0.22,0.00000,0.00000,0.0,0,0*2740
$MRC,72,79683,30.55,76.0,1009.59,0.3,0.045,-0.254,0.903,-0.19,-0.18,0.16,0.00000,0.00000,0.0,0,0*F19B
$MRC,73,80683,30.56,76.0,1009.59,0.3,0.047,-0.262,0.900,-0.16,0.10,0.27,0.00000,0.00000,0.0,0,0*76FB
$MRC,74,81683,30.57,76.0,1009.58,0.4,0.049,-0.261,0.908,0.07,-0.10,-0.07,0.00000,0.00000,0.0,0,0*97E5
$MRC,75,82683,30.58,76.0,1009.57,0.4,0.050,-0.258,0.905,-0.02,-0.38,0.01,0.00000,0.00000,0.0,0,0*A76C
$MRC,76,83683,30.59,76.0,1009.59,0.3,0.051,-0.257,0.905,0.10,0.04,0.16,0.00000,0.00000,0.0,0,0*ED8D
$MRC,77,84683,30.59,76.0,1009.55,0.6,0.049,-0.259,0.903,0.12,-0.02,-0.08,0.00000,0.00000,0.0,0,0*AFFA
$MRC,78,85683,30.60,76.0,1009.54,0.7,0.045,-0.259,0.899,-0.42,0.14,0.01,0.00000,0.00000,0.0,0,0*20B1
$MRC,79,86683,30.61,76.0,1009.58,0.4,0.048,-0.258,0.906,-0.04,-0.07,0.24,0.00000,0.00000,0.0,0,0*4132
$MRC,80,87683,30.63,75.9,1009.58,0.4,0.050,-0.261,0.902,-0.19,-0.13,-0.20,0.00000,0.00000,0.0,0,0*3417
$MRC,81,88683,30.64,75.9,1009.59,0.3,0.046,-0.258,0.903,-0.14,-0.19,-0.02,0.00000,0.00000,0.0,0,0*72F0
$MRC,82,89683,30.64,75.7,1009.58,0.4,0.047,-0.257,0.908,0.12,-0.04,0.16,0.00000,0.00000,0.0,0,0*2FFE
$MRC,83,90683,30.65,75.7,1009.57,0.4,0.047,-0.261,0.901,-0.02,-0.21,0.01,0.00000,0.00000,0.0,0,0*91E7
$MRC,84,91683,30.67,75.7,1009.57,0.5,0.046,-0.258,0.905,0.12,0.07,-0.20,0.00000,0.00000,0.0,0,0*AC34
$MRC,85,92683,30.68,75.6,1009.59,0.3,0.044,-0.259,0.902,0.15,0.14,-0.03,0.00000,0.00000,0.0,0,0*4774
$MRC,86,93683,30.68,75.6,1009.59,0.3,0.051,-0.261,0.901,0.09,-0.01,0.15,0.00000,0.00000,0.0,0,0*60C9
$MRC,87,94683,30.69,75.6,1009.57,0.5,0.046,-0.258,0.908,0.16,-0.04,0.32,0.00000,0.00000,0.0,0,0*DE51
$MRC,88,95683,30.70,75.5,1009.57,0.5,0.046,-0.258,0.902,-0.11,-0.24,0.01,0.00000,0.00000,0.0,0,0*6957
$MRC,89,96683,30.71,75.5,1009.56,0.5,0.048,-0.256,0.902,-0.20,0.05,0.07,0.00000,0.00000,0.0,0,0*3E4D
$MRC,90,97683,30.72,75.5,1009.56,0.5,0.042,-0.260,0.900,-0.00,0.05,-0.16,0.00000,0.00000,0.0,0,0*9A49
$MRC,91,98683,30.72,75.4,1009.56,0.5,0.048,-0.256,0.908,-0.28,0.13,-0.13,0.00000,0.00000,0.0,0,0*30A7
$MRC,92,99683,30.74,75.4,1009.59,0.3,0.050,-0.263,0.905,-0.02,0.02,0.06,0.00000,0.00000,0.0,0,0*BECD
$MRC,93,100683,30.75,75.4,1009.59,0.3,0.049,-0.260,0.907,0.24,-0.22,-0.00,0.00000,0.00000,0.0,0,0*4F0D
$MRC,94,101683,30.76,75.4,1009.58,0.4,0.045,-0.261,0.906,-0.17,0.37,0.15,0.00000,0.00000,0.0,0,0*038D
$MRC,95,102683,30.77,75.4,1009.59,0.4,0.048,-0.261,0.903,0.18,0.10,0.10,0.00000,0.00000,0.0,0,0*FD32
$MRC,96,103683,30.78,75.3,1009.62,0.1,0.045,-0.258,0.905,-0.14,-0.21,0.21,0.00000,0.00000,0.0,0,0*5C81
$MRC,97,104683,30.79,75.3,1009.57,0.5,0.045,-0.262,0.900,-0.05,-0.13,0.04,0.00000,0.00000,0.0,0,0*FA72
$MRC,98,105683,30.79,75.2,1009.59,0.3,0.043,-0.262,0.906,-0.20,-0.33,0.09,0.00000,0.00000,0.0,0,0*0BF7
$MRC,99,106683,30.80,75.2,1009.57,0.5,0.045,-0.260,0.905,0.10,-0.16,0.15,0.00000,0.00000,0.0,0,0*F455
$MRC,100,107683,30.82,75.1,1009.59,0.3,0.046,-0.255,0.900,-0.08,0.01,0.01,0.00000,0.00000,0.0,0,0*9136
$MRC,101,108683,30.83,75.1,1009.60,0.3,0.051,-0.262,0.900,0.19,0.13,0.13,0.00000,0.00000,0.0,0,0*6E38
$MRC,102,109683,30.84,75.1,1009.62,0.1,0.048,-0.256,0.901,0.06,0.02,0.15,0.00000,0.00000,0.0,0,0*AEC8
$MRC,103,110683,30.84,75.0,1009.59,0.3,0.047,-0.256,0.901,-0.05,-0.04,-0.08,0.00000,0.00000,0.0,0,0*4B2A
$MRC,104,111683,30.85,75.0,1009.59,0.3,0.043,-0.259,0.902,-0.11,-0.05,0.13,0.00000,0.00000,0.0,0,0*2E56
$MRC,105,112683,30.86,75.0,1009.60,0.3,0.050,-0.257,0.903,0.09,-0.07,0.15,0.00000,0.00000,0.0,0,0*DABB
$MRC,106,113683,30.86,74.9,1009.61,0.1,0.046,-0.261,0.899,0.06,-0.07,0.09,0.00000,0.00000,0.0,0,0*B51C
$MRC,107,114683,30.86,74.9,1009.58,0.4,0.046,-0.257,0.897,-0.02,-0.02,0.01,0.00000,0.00000,0.0,0,0*574B
$MRC,108,115683,30.88,74.9,1009.62,0.1,0.045,-0.258,0.898,0.10,0.10,0.06,0.00000,0.00000,0.0,0,0*0CE4
$MRC,109,116683,30.88,74.9,1009.59,0.3,0.048,-0.262,0.906,0.12,0.07,-0.08,0.00000,0.00000,0.0,0,0*184E
$MRC,110,117683,30.89,74.9,1009.59,0.3,0.044,-0.260,0.903,0.04,0.07,-0.13,0.00000,0.00000,0.0,0,0*3BB2
$MRC,111,118683,30.90,74.9,1009.59,0.3,0.044,-0.258,0.908,-0.08,0.08,0.38,0.00000,0.00000,0.0,0,0*A828
$MRC,112,119683,30.91,74.9,1009.59,0.3,0.045,-0.263,0.906,0.12,-0.05,0.04,0.00000,0.00000,0.0,0,0*2370
$MRC,113,120683,30.92,74.9,1009.59,0.3,0.046,-0.260,0.900,-0.36,0.16,0.27,0.00000,0.00000,0.0,0,0*5A70
$MRC,114,121683,30.92,74.8,1009.57,0.4,0.047,-0.259,0.896,-0.13,-0.01,0.16,0.00000,0.00000,0.0,0,0*F19E
$MRC,115,122683,30.93,74.7,1009.62,0.1,0.046,-0.258,0.909,0.22,0.05,0.19,0.00000,0.00000,0.0,0,0*6774
$MRC,116,123683,30.94,74.7,1009.59,0.3,0.046,-0.261,0.900,-0.10,0.07,0.18,0.00000,0.00000,0.0,0,0*DCE5
$MRC,117,124683,30.95,74.7,1009.60,0.2,0.046,-0.263,0.898,-0.17,0.02,0.09,0.00000,0.00000,0.0,0,0*F8BA
$MRC,118,125683,30.96,74.7,1009.57,0.5,0.047,-0.258,0.907,-0.05,0.13,0.27,0.00000,0.00000,0.0,0,0*3639
$MRC,119,126683,30.97,74.7,1009.57,0.5,0.048,-0.258,0.906,0.07,-0.01,-0.02,0.00000,0.00000,0.0,0,0*26B2
$MRC,120,127683,30.97,74.7,1009.60,0.2,0.045,-0.258,0.902,0.03,-0.09,-0.07,0.00000,0.00000,0.0,0,0*B478
$MRC,121,128683,30.97,74.6,1009.60,0.2,0.047,-0.257,0.901,0.15,0.04,0.21,0.00000,0.00000,0.0,0,0*E105
$MRC,122,129683,30.98,74.6,1009.62,0.1,0.046,-0.259,0.906,0.07,0.13,0.16,0.00000,0.00000,0.0,0,0*7EF3
$MRC,123,130683,30.99,74.6,1009.58,0.4,0.048,-0.263,0.900,0.09,-0.19,0.06,0.00000,0.00000,0.0,0,0*61AD
$MRC,124,131683,31.00,74.5,1009.58,0.4,0.048,-0.259,0.901,0.13,-0.01,0.01,0.00000,0.00000,0.0,0,0*EFFB
$MRC,125,132683,31.01,74.5,1009.61,0.2,0.045,-0.259,0.898,0.06,0.02,-0.02,0.00000,0.00000,0.0,0,0*2AEE
$MRC,126,133683,31.01,74.5,1009.56,0.5,0.047,-0.258,0.901,-0.04,0.19,0.03,0.00000,0.00000,0.0,0,0*01A0
$MRC,127,134683,31.01,74.4,1009.61,0.5,0.044,-0.260,0.904,-0.22,-0.01,0.03,0.00000,0.00000,0.0,0,0*E09A
$MRC,128,135683,31.02,74.4,1009.59,0.3,0.045,-0.258,0.897,0.16,0.07,0.22,0.00000,0.00000,0.0,0,0*FA83
$MRC,129,136683,31.03,74.4,1009.57,0.5,0.047,-0.263,0.900,-0.11,0.28,-0.00,0.00000,0.00000,0.0,0,0*58F4
$MRC,130,137683,31.04,74.4,1009.58,0.4,0.048,-0.254,0.902,0.01,-0.09,0.24,0.00000,0.00000,0.0,0,0*7A69
$MRC,131,138683,31.04,74.3,1009.58,0.4,0.048,-0.261,0.904,-0.23,-0.15,0.19,0.00000,0.00000,0.0,0,0*F8BE
$MRC,132,139683,31.05,74.3,1009.56,0.5,0.048,-0.260,0.900,0.01,0.20,-0.00,0.00000,0.00000,0.0,0,0*039A
$MRC,133,140683,31.07,74.3,1009.55,0.6,0.042,-0.262,0.905,-0.13,0.08,0.13,0.00000,0.00000,0.0,0,0*5881
$MRC,134,141683,31.08,74.3,1009.56,0.6,0.048,-0.260,0.904,0.13,-0.16,0.22,0.00000,0.00000,0.0,0,0*D5DF
$MRC,135,142683,31.08,74.3,1009.56,0.6,0.049,-0.259,0.903,-0.20,0.04,0.38,0.00000,0.00000,0.0,0,0*73A4
$MRC,136,143683,31.09,74.3,1009.56,0.6,0.048,-0.259,0.903,0.19,0.07,0.19,0.00000,0.00000,0.0,0,0*937A
$MRC,137,144683,31.11,74.3,1009.58,0.4,0.043,-0.259,0.905,0.18,0.10,0.21,0.00000,0.00000,0.0,0,0*2567
$MRC,138,145683,31.12,74.3,1009.56,0.6,0.045,-0.260,0.903,-0.17,-0.09,0.21,0.00000,0.00000,0.0,0,0*A129
$MRC,139,146683,31.12,74.3,1009.55,0.6,0.050,-0.260,0.902,0.12,0.02,0.16,0.00000,0.00000,0.0,0,0*7E51
$MRC,140,147683,31.14,74.2,1009.57,0.4,0.044,-0.258,0.899,-0.04,-0.07,0.22,0.00000,0.00000,0.0,0,0*6255
$MRC,141,148683,31.14,74.2,1009.59,0.3,0.043,-0.256,0.902,0.09,-0.15,0.07,0.00000,0.00000,0.0,0,0*6820
$MRC,142,149683,31.15,74.2,1009.60,0.2,0.047,-0.257,0.896,0.12,0.04,-0.07,0.00000,0.00000,0.0,0,0*28C4
$MRC,143,150683,31.16,74.2,1009.55,0.6,0.042,-0.260,0.898,0.01,0.11,0.15,0.00000,0.00000,0.0,0,0*B44B
$MRC,144,151683,31.17,74.2,1009.57,0.4,0.048,-0.262,0.901,0.09,0.02,0.21,0.00000,0.00000,0.0,0,0*4073
$MRC,145,152683,31.18,74.2,1009.56,0.6,0.046,-0.259,0.903,-0.07,-0.04,0.06,0.00000,0.00000,0.0,0,0*3D17
$MRC,146,153683,31.19,74.1,1009.60,0.3,0.049,-0.258,0.896,0.04,0.01,0.18,0.00000,0.00000,0.0,0,0*2CF0
$MRC,147,154683,31.19,74.1,1009.59,0.3,0.046,-0.259,0.903,-0.13,-0.04,0.06,0.00000,0.00000,0.0,0,0*BBAE
$MRC,148,155683,31.20,74.0,1009.61,0.1,0.047,-0.257,0.911,-0.00,-0.04,0.26,0.00000,0.00000,0.0,0,0*9ECA
$MRC,149,156683,31.21,74.0,1009.57,0.4,0.048,-0.263,0.901,-0.10,-0.04,-0.11,0.00000,0.00000,0.0,0,0*F4A0
$MRC,150,157683,31.23,74.0,1009.61,0.2,0.049,-0.259,0.905,-0.14,0.31,0.39,0.00000,0.00000,0.0,0,0*6FC4
$MRC,151,158683,31.23,74.0,1009.58,0.4,0.046,-0.261,0.903,-0.20,0.07,-0.05,0.00000,0.00000,0.0,0,0*FED0
$MRC,152,159683,31.24,73.9,1009.64,-0.1,0.047,-0.259,0.893,-0.19,0.05,-0.07,0.00000,0.00000,0.0,0,0*EC4F
$MRC,153,160683,31.24,73.9,1009.56,0.5,0.047,-0.258,0.903,0.07,-0.13,0.01,0.00000,0.00000,0.0,0,0*6DCD
$MRC,154,161683,31.26,73.9,1009.59,0.3,0.043,-0.262,0.899,0.04,0.20,0.22,0.00000,0.00000,0.0,0,0*7D06
$MRC,155,162683,31.27,73.9,1009.57,0.5,0.045,-0.259,0.904,-0.04,-0.09,-0.05,0.00000,0.00000,0.0,0,0*D40B
$MRC,156,163683,31.28,73.8,1009.57,0.5,0.051,-0.261,0.904,-0.10,0.07,0.22,0.00000,0.00000,0.0,0,0*0DAC
$MRC,157,164683,31.29,73.8,1009.58,0.4,0.044,-0.260,0.903,0.12,0.13,0.13,0.00000,0.00000,0.0,0,0*FA05
$MRC,158,165683,31.28,73.7,1009.57,0.5,0.045,-0.263,0.901,0.09,0.07,-0.17,0.00000,0.00000,0.0,0,0*8A13
$MRC,159,166683,31.30,73.7,1009.61,0.1,0.042,-0.256,0.899,-0.07,0.11,0.06,0.00000,0.00000,0.0,0,0*A2BE
$MRC,160,167683,31.30,73.7,1009.58,0.4,0.049,-0.261,0.905,-0.11,-0.01,0.19,0.00000,0.00000,0.0,0,0*6216
$MRC,161,168683,31.31,73.7,1009.59,0.3,0.045,-0.256,0.902,-0.14,0.14,0.16,0.00000,0.00000,0.0,0,0*CCEF
$MRC,162,169683,31.33,73.7,1009.56,0.5,0.042,-0.262,0.902,-0.14,0.14,0.03,0.00000,0.00000,0.0,0,0*0E10
$MRC,163,170683,31.34,73.7,1009.59,0.3,0.048,-0.262,0.905,-0.10,-0.07,0.44,0.00000,0.00000,0.0,0,0*3A59
$MRC,164,171683,31.35,73.7,1009.56,0.5,0.049,-0.255,0.897,-0.07,-0.21,0.06,0.00000,0.00000,0.0,0,0*208A
$MRC,165,172683,31.36,73.6,1009.62,0.0,0.049,-0.259,0.903,0.19,-0.05,0.19,0.00000,0.00000,0.0,0,0*805B
$MRC,166,173683,31.37,73.6,1009.62,0.1,0.046,-0.262,0.905,0.03,0.27,-0.08,0.00000,0.00000,0.0,0,0*5CE6
$MRC,167,174683,31.37,73.6,1009.58,0.4,0.046,-0.260,0.904,-0.10,0.16,0.13,0.00000,0.00000,0.0,0,0*5B2B
$MRC,168,175683,31.38,73.5,1009.60,0.2,0.046,-0.257,0.901,-0.29,-0.07,0.32,0.00000,0.00000,0.0,0,0*B0DF
$MRC,169,176683,31.39,73.5,1009.57,0.5,0.047,-0.264,0.906,-0.07,-0.02,0.15,0.00000,0.00000,0.0,0,0*F8D5
$MRC,170,177683,31.39,73.4,1009.58,0.4,0.049,-0.259,0.902,0.04,-0.05,0.44,0.00000,0.00000,0.0,0,0*F531
$MRC,171,178683,31.40,73.4,1009.57,0.5,0.047,-0.256,0.906,0.16,0.02,-0.03,0.00000,0.00000,0.0,0,0*3D41
$MRC,172,179683,31.40,73.3,1009.57,0.5,0.049,-0.260,0.902,0.09,-0.02,0.12,0.00000,0.00000,0.0,0,0*893E
$MRC,173,180683,31.41,73.3,1009.59,0.3,0.046,-0.262,0.903,0.09,-0.16,-0.05,0.00000,0.00000,0.0,0,0*39F8
$MRC,174,181683,31.41,73.3,1009.59,0.3,0.042,-0.261,0.904,-0.10,0.10,0.06,0.00000,0.00000,0.0,0,0*A3FC
$MRC,175,182683,31.42,73.2,1009.62,0.1,0.045,-0.259,0.905,0.15,0.11,0.07,0.00000,0.00000,0.0,0,0*1FAA
$MRC,176,183683,31.43,73.2,1009.63,0.0,0.047,-0.257,0.905,-0.10,0.13,0.21,0.00000,0.00000,0.0,0,0*C27D
$MRC,177,184683,31.44,73.2,1009.61,0.1,0.046,-0.258,0.902,0.09,-0.05,0.22,0.00000,0.00000,0.0,0,0*1A31
$MRC,178,185683,31.44,73.2,1009.61,0.1,0.046,-0.261,0.905,-0.13,0.07,-0.03,0.00000,0.00000,0.0,0,0*7B18
$MRC,179,186683,31.45,73.2,1009.58,0.4,0.044,-0.260,0.904,-0.13,-0.04,0.19,0.00000,0.00000,0.0,0,0*65B4
$MRC,180,187683,31.46,73.1,1009.58,0.4,0.046,-0.263,0.902,0.06,-0.09,0.27,0.00000,0.00000,0.0,0,0*353D
$MRC,181,188683,31.46,73.1,1009.60,0.2,0.049,-0.259,0.901,0.12,-0.12,-0.17,0.00000,0.00000,0.0,0,0*CD87
$MRC,182,189683,31.48,73.2,1009.63,0.0,0.049,-0.259,0.905,-0.11,-0.02,0.36,0.00000,0.00000,0.0,0,0*22FF
$MRC,183,190683,31.49,73.2,1009.62,0.1,0.050,-0.261,0.902,-0.08,0.01,0.18,0.00000,0.00000,0.0,0,0*4C53
$MRC,184,191683,31.50,73.2,1009.61,0.1,0.044,-0.257,0.906,-0.14,0.01,0.13,0.00000,0.00000,0.0,0,0*B688
$MRC,185,192683,31.52,73.1,1009.64,-0.1,0.044,-0.257,0.908,0.15,0.02,0.24,0.00000,0.00000,0.0,0,0*C97E
$MRC,186,193683,31.52,73.1,1009.63,-0.0,0.045,-0.258,0.899,0.04,0.17,0.03,0.00000,0.00000,0.0,0,0*1F33
$MRC,187,194683,31.52,73.1,1009.62,0.0,0.049,-0.262,0.897,-0.04,-0.02,0.13,0.00000,0.00000,0.0,0,0*FA6B
$MRC,188,195683,31.54,73.0,1009.62,0.0,0.048,-0.262,0.903,0.10,-0.33,0.04,0.00000,0.00000,0.0,0,0*C70C
$MRC,189,196683,31.55,73.0,1009.60,0.3,0.052,-0.261,0.902,0.15,0.17,-0.00,0.00000,0.00000,0.0,0,0*9531
$MRC,190,197683,31.56,73.0,1009.60,0.2,0.047,-0.261,0.904,0.07,-0.05,-0.26,0.00000,0.00000,0.0,0,0*77D2
$MRC,191,198683,31.56,73.0,1009.61,0.2,0.044,-0.262,0.902,-0.34,-0.15,0.21,0.00000,0.00000,0.0,0,0*7D78
$MRC,192,199683,31.58,73.0,1009.61,0.2,0.044,-0.257,0.897,0.16,0.14,-0.05,0.00000,0.00000,0.0,0,0*5C9F
$MRC,193,200683,31.58,72.9,1009.60,0.2,0.047,-0.260,0.899,-0.22,-0.09,-0.00,0.00000,0.00000,0.0,0,0*6A59
$MRC,194,201683,31.59,72.9,1009.61,0.1,0.049,-0.259,0.902,0.07,-0.02,-0.00,0.00000,0.00000,0.0,0,0*1E52
$MRC,195,202683,31.60,72.8,1009.60,0.2,0.046,-0.258,0.900,-0.16,-0.19,-0.00,0.00000,0.00000,0.0,0,0*4683
$MRC,196,203683,31.61,72.7,1009.63,-0.0,0.043,-0.257,0.908,0.10,0.11,0.29,0.00000,0.00000,0.0,0,0*2705
$MRC,197,204683,31.62,72.7,1009.62,0.1,0.046,-0.260,0.902,-0.04,-0.01,-0.16,0.00000,0.00000,0.0,0,0*5677
$MRC,198,205683,31.63,72.7,1009.60,0.2,0.043,-0.261,0.907,-0.16,-0.07,0.35,0.00000,0.00000,0.0,0,0*3293
$MRC,199,206683,31.65,72.7,1009.62,0.0,0.050,-0.254,0.904,0.07,-0.12,-0.07,0.00000,0.00000,0.0,0,0*4D80
$MRC,200,207683,31.65,72.7,1009.59,0.3,0.044,-0.261,0.903,-0.00,-0.15,-0.00,0.00000,0.00000,0.0,0,0*022D
$MRC,201,208683,31.66,72.6,1009.60,0.2,0.045,-0.262,0.903,-0.00,-0.09,0.18,0.00000,0.00000,0.0,0,0*4915
$MRC,202,209683,31.67,72.6,1009.58,0.4,0.046,-0.260,0.905,0.03,-0.16,-0.02,0.00000,0.00000,0.0,0,0*30CF
$MRC,203,210683,31.67,72.6,1009.59,0.3,0.051,-0.261,0.901,-0.02,-0.28,-0.03,0.00000,0.00000,0.0,0,0*FA43
$MRC,204,211683,31.69,72.5,1009.59,0.3,0.046,-0.258,0.902,0.01,0.08,0.12,0.00000,0.00000,0.0,0,0*ABC9
$MRC,205,212683,31.69,72.5,1009.60,0.2,0.045,-0.261,0.908,0.18,-0.10,0.21,0.00000,0.00000,0.0,0,0*BD63
$MRC,206,213683,31.69,72.4,1009.57,0.5,0.048,-0.258,0.910,-0.00,0.28,0.06,0.00000,0.00000,0.0,0,0*FB62
$MRC,207,214683,31.70,72.4,1009.60,0.2,0.047,-0.257,0.907,0.01,-0.25,0.03,0.00000,0.00000,0.0,0,0*AB39
$MRC,208,215683,31.71,72.4,1009.61,0.2,0.043,-0.258,0.907,-0.07,-0.07,-0.10,0.00000,0.00000,0.0,0,0*91C7
$MRC,209,216683,31.72,72.3,1009.59,0.3,0.046,-0.259,0.896,-0.11,-0.02,-0.03,0.00000,0.00000,0.0,0,0*C031
$MRC,210,217683,31.73,72.3,1009.61,0.2,0.047,-0.263,0.906,0.21,0.08,0.15,0.00000,0.00000,0.0,0,0*7134
$MRC,211,218683,31.74,72.3,1009.62,0.0,0.045,-0.262,0.899,-0.04,-0.15,-0.05,0.00000,0.00000,0.0,0,0*A774
$MRC,212,219683,31.75,72.3,1009.60,0.2,0.044,-0.261,0.908,0.13,-0.27,0.19,0.00000,0.00000,0.0,0,0*8EFF
$MRC,213,220683,31.76,72.3,1009.59,0.3,0.044,-0.260,0.901,-0.11,-0.09,-0.13,0.00000,0.00000,0.0,0,0*9492
$MRC,214,221683,31.76,72.2,1009.64,-0.1,0.046,-0.261,0.907,-0.10,0.16,-0.05,0.00000,0.00000,0.0,0,0*18C0
$MRC,215,222683,31.78,72.2,1009.63,0.0,0.046,-0.261,0.893,-0.08,-0.15,0.04,0.00000,0.00000,0.0,0,0*17BA
$MRC,216,223683,31.79,72.2,1009.61,0.1,0.044,-0.258,0.903,0.15,-0.13,-0.05,0.00000,0.00000,0.0,0,0*9AB2
$MRC,217,224683,31.80,72.2,1009.65,-0.2,0.044,-0.262,0.901,0.21,0.11,0.04,0.00000,0.00000,0.0,0,0*92E8
$MRC,218,225683,31.81,72.2,1009.63,-0.1,0.045,-0.255,0.900,-0.16,0.04,0.12,0.00000,0.00000,0.0,0,0*CB6C
$MRC,219,226683,31.81,72.2,1009.61,0.2,0.044,-0.262,0.904,-0.04,0.14,-0.07,0.00000,0.00000,0.0,0,0*1CBC
$MRC,220,227683,31.83,72.2,1009.60,0.2,0.046,-0.258,0.903,0.22,0.13,0.19,0.00000,0.00000,0.0,0,0*B454
$MRC,221,228683,31.83,72.1,1009.61,0.1,0.045,-0.255,0.902,-0.14,0.13,0.07,0.00000,0.00000,0.0,0,0*2B6E
$MRC,222,229683,31.84,72.1,1009.64,-0.1,0.047,-0.261,0.898,-0.14,0.10,0.19,0.00000,0.00000,0.0,0,0*0006
$MRC,223,230683,31.85,72.1,1009.59,0.3,0.046,-0.259,0.904,-0.04,-0.02,-0.02,0.00000,0.00000,0.0,0,0*E420
$MRC,224,231683,31.86,72.0,1009.63,0.0,0.042,-0.257,0.904,-0.11,-0.02,-0.02,0.00000,0.00000,0.0,0,0*7D26
$MRC,225,232683,31.86,72.0,1009.63,-0.0,0.046,-0.258,0.899,0.01,0.08,-0.00,0.00000,0.00000,0.0,0,0*829B
$MRC,226,233683,31.87,72.0,1009.61,0.1,0.042,-0.261,0.901,-0.13,-0.22,0.12,0.00000,0.00000,0.0,0,0*A214
$MRC,227,234683,31.89,72.0,1009.64,-0.1,0.045,-0.260,0.906,0.10,0.07,0.13,0.00000,0.00000,0.0,0,0*F337
$MRC,228,235683,31.89,71.9,1009.64,-0.1,0.046,-0.257,0.903,0.12,0.28,0.22,0.00000,0.00000,0.0,0,0*E094
$MRC,229,236683,31.88,71.9,1009.62,0.1,0.044,-0.260,0.904,0.12,0.07,0.16,0.00000,0.00000,0.0,0,0*B996
$MRC,230,237683,31.90,71.9,1009.60,0.2,0.044,-0.258,0.905,0.21,0.11,0.10,0.00000,0.00000,0.0,0,0*9391
$MRC,231,238683,31.90,71.8,1009.63,0.0,0.047,-0.264,0.902,0.07,0.13,0.21,0.00000,0.00000,0.0,0,0*731A
$MRC,232,239683,31.91,71.8,1009.60,0.2,0.047,-0.262,0.898,0.06,-0.01,0.15,0.00000,0.00000,0.0,0,0*5CF5
$MRC,233,240683,31.92,71.8,1009.62,0.1,0.047,-0.262,0.903,0.07,0.10,-0.03,0.00000,0.00000,0.0,0,0*CEAF
$MRC,234,241683,31.94,71.8,1009.62,0.1,0.043,-0.256,0.902,0.04,-0.15,0.06,0.00000,0.00000,0.0,0,0*1901
$MRC,235,242683,31.94,71.8,1009.62,0.1,0.047,-0.259,0.907,0.21,0.01,0.16,0.00000,0.00000,0.0,0,0*D357
$MRC,236,243683,31.95,71.8,1009.63,-0.0,0.046,-0.258,0.901,0.41,0.10,0.12,0.00000,0.00000,0.0,0,0*7C0F
$MRC,237,244683,31.96,71.8,1009.60,0.3,0.046,-0.255,0.902,-0.16,-0.19,-0.10,0.00000,0.00000,0.0,0,0*4C34
$MRC,238,245683,31.96,71.7,1009.62,0.1,0.047,-0.259,0.902,0.01,-0.12,-0.13,0.00000,0.00000,0.0,0,0*7306
$MRC,239,246683,31.98,71.7,1009.63,-0.0,0.041,-0.257,0.902,-0.10,-0.36,0.10,0.00000,0.00000,0.0,0,0*7BCC
$MRC,240,247683,31.98,71.7,1009.61,0.1,0.045,-0.260,0.899,-0.02,-0.02,0.04,0.00000,0.00000,0.0,0,0*E6C6
$MRC,241,248683,31.99,71.6,1009.61,0.1,0.045,-0.263,0.897,-0.10,-0.09,-0.19,0.00000,0.00000,0.0,0,0*BE47
$MRC,242,249683,32.00,71.6,1009.61,0.2,0.041,-0.257,0.899,0.15,0.22,-0.00,0.00000,0.00000,0.0,0,0*3277
$MRC,243,250683,32.00,71.6,1009.60,0.3,0.045,-0.263,0.899,-0.16,-0.21,-0.17,0.00000,0.00000,0.0,0,0*E9DB
$MRC,244,251683,32.00,71.6,1009.62,0.1,0.040,-0.260,0.901,-0.10,-0.15,0.01,0.00000,0.00000,0.0,0,0*B77F
$MRC,245,252683,32.02,71.5,1009.62,0.1,0.045,-0.262,0.899,0.01,0.04,-0.32,0.00000,0.00000,0.0,0,0*6DE3
$MRC,246,253683,32.02,71.5,1009.61,0.1,0.048,-0.260,0.901,-0.20,0.14,-0.16,0.00000,0.00000,0.0,0,0*C4AB
$MRC,247,254683,32.02,71.4,1009.65,-0.1,0.046,-0.254,0.898,0.13,0.13,0.07,0.00000,0.00000,0.0,0,0*1501
$MRC,248,255683,32.03,71.5,1009.60,0.3,0.046,-0.260,0.900,-0.33,0.16,0.27,0.00000,0.00000,0.0,0,0*0A80
$MRC,249,256683,32.03,71.4,1009.59,0.3,0.043,-0.260,0.902,-0.29,0.13,0.27,0.00000,0.00000,0.0,0,0*0448
$MRC,250,257683,32.04,71.4,1009.61,0.1,0.042,-0.258,0.904,0.06,0.08,0.10,0.00000,0.00000,0.0,0,0*D8A3
$MRC,251,258683,32.06,71.4,1009.63,-0.0,0.050,-0.260,0.899,-0.16,0.20,0.15,0.00000,0.00000,0.0,0,0*36AC
$MRC,252,259683,32.05,71.4,1009.63,-0.1,0.042,-0.262,0.894,0.19,-0.13,-0.03,0.00000,0.00000,0.0,0,0*47EF
$MRC,253,260683,32.05,71.3,1009.63,0.0,0.044,-0.262,0.907,-0.13,-0.19,0.07,0.00000,0.00000,0.0,0,0*1D48
$MRC,254,261683,32.05,71.3,1009.59,0.3,0.043,-0.261,0.901,-0.39,-0.27,0.15,0.00000,0.00000,0.0,0,0*3AE5
$MRC,255,262683,32.06,71.3,1009.63,-0.0,0.044,-0.261,0.892,0.04,0.13,-0.03,0.00000,0.00000,0.0,0,0*FB21
$MRC,256,263683,32.07,71.3,1009.64,-0.1,0.044,-0.256,0.906,-0.10,0.07,0.10,0.00000,0.00000,0.0,0,0*95CD
$MRC,257,264683,32.08,71.3,1009.61,0.1,0.045,-0.258,0.899,-0.08,-0.01,0.06,0.00000,0.00000,0.0,0,0*A0D5
$MRC,258,265683,32.08,71.3,1009.63,0.0,0.050,-0.257,0.905,0.04,0.04,0.07,0.00000,0.00000,0.0,0,0*1E45
$MRC,259,266683,32.08,71.3,1009.62,0.1,0.049,-0.261,0.894,-0.05,0.05,-0.23,0.00000,0.00000,0.0,0,0*78FD
$MRC,260,267683,32.10,71.3,1009.62,0.1,0.048,-0.258,0.898,0.16,-0.05,0.10,0.00000,0.00000,0.0,0,0*51FE
$MRC,261,268683,32.11,71.3,1009.62,0.1,0.047,-0.263,0.896,-0.11,0.04,0.13,0.00000,0.00000,0.0,0,0*2652
$MRC,262,269683,32.11,71.3,1009.61,0.1,0.049,-0.256,0.902,-0.13,0.10,0.21,0.00000,0.00000,0.0,0,0*8923
$MRC,263,270683,32.12,71.2,1009.62,0.1,0.047,-0.261,0.908,0.19,0.01,0.16,0.00000,0.00000,0.0,0,0*8B88
$MRC,264,271683,32.13,71.2,1009.64,-0.1,0.044,-0.258,0.902,0.07,0.28,-0.28,0.00000,0.00000,0.0,0,0*84B0
$MRC,265,272683,32.14,71.2,1009.65,-0.2,0.048,-0.258,0.898,0.01,-0.09,0.10,0.00000,0.00000,0.0,0,0*E3C7
$MRC,266,273683,32.14,71.1,1009.65,-0.2,0.047,-0.258,0.898,-0.05,-0.01,0.18,0.00000,0.00000,0.0,0,0*A4AD
$MRC,267,274683,32.14,71.1,1009.64,-0.1,0.047,-0.259,0.900,0.06,-0.09,0.03,0.00000,0.00000,0.0,0,0*F6A8
$MRC,268,275683,32.16,71.1,1009.63,0.0,0.047,-0.258,0.896,0.12,-0.25,0.15,0.00000,0.00000,0.0,0,0*4873
$MRC,269,276683,32.17,71.1,1009.62,0.1,0.044,-0.262,0.900,-0.13,0.16,0.15,0.00000,0.00000,0.0,0,0*E24F
$MRC,270,277683,32.18,71.1,1009.63,-0.0,0.043,-0.261,0.900,-0.04,0.04,0.16,0.00000,0.00000,0.0,0,0*05F9
$MRC,271,278683,32.18,71.1,1009.63,-0.0,0.041,-0.258,0.903,-0.04,-0.02,0.22,0.00000,0.00000,0.0,0,0*DBC7
$MRC,272,279683,32.19,71.1,1009.61,0.1,0.045,-0.258,0.898,0.10,-0.05,0.03,0.00000,0.00000,0.0,0,0*E1E6
$MRC,273,280683,32.20,71.1,1009.62,0.0,0.048,-0.259,0.894,0.13,-0.02,0.16,0.00000,0.00000,0.0,0,0*FDCF
$MRC,274,281683,32.21,71.0,1009.63,0.0,0.044,-0.262,0.905,0.18,-0.05,-0.19,0.00000,0.00000,0.0,0,0*AE7D
$MRC,275,282683,32.21,70.9,1009.61,0.1,0.046,-0.262,0.904,-0.19,-0.05,0.29,0.00000,0.00000,0.0,0,0*0C3C
$MRC,276,283683,32.22,70.9,1009.62,0.1,0.048,-0.260,0.906,0.04,-0.04,-0.17,0.00000,0.00000,0.0,0,0*8E8D
$MRC,277,284683,32.23,70.9,1009.62,0.1,0.049,-0.257,0.902,-0.08,0.11,0.15,0.00000,0.00000,0.0,0,0*0628
$MRC,278,285683,32.24,70.9,1009.61,0.1,0.045,-0.260,0.904,0.09,-0.09,-0.10,0.00000,0.00000,0.0,0,0*54B5
$MRC,279,286683,32.23,70.9,1009.62,0.1,0.050,-0.259,0.905,0.22,0.33,0.12,0.00000,0.00000,0.0,0,0*4B80
$MRC,280,287683,32.24,70.8,1009.63,-0.0,0.048,-0.258,0.899,0.10,-0.12,-0.11,0.00000,0.00000,0.0,0,0*0174
$MRC,281,288683,32.25,70.8,1009.62,0.0,0.046,-0.261,0.907,-0.07,-0.15,-0.02,0.00000,0.00000,0.0,0,0*3945
$MRC,282,289683,32.26,70.8,1009.60,0.2,0.050,-0.258,0.908,0.01,-0.12,0.09,0.00000,0.00000,0.0,0,0*331C
$MRC,283,290683,32.26,70.8,1009.62,0.1,0.048,-0.258,0.900,-0.10,0.02,0.10,0.00000,0.00000,0.0,0,0*2022
$MRC,284,291683,32.27,70.8,1009.59,0.3,0.050,-0.262,0.901,-0.11,0.19,0.21,0.00000,0.00000,0.0,0,0*066E
$MRC,285,292683,32.28,70.8,1009.63,-0.0,0.047,-0.257,0.901,-0.05,-0.28,0.07,0.00000,0.00000,0.0,0,0*BE8D
$MRC,286,293683,32.28,70.7,1009.60,0.2,0.043,-0.258,0.900,0.24,0.01,-0.05,0.00000,0.00000,0.0,0,0*C223
$MRC,287,294683,32.29,70.7,1009.62,0.1,0.045,-0.262,0.899,-0.00,0.04,0.32,0.00000,0.00000,0.0,0,0*A62B
$MRC,288,295683,32.30,70.7,1009.60,0.2,0.044,-0.260,0.901,-0.29,0.13,0.12,0.00000,0.00000,0.0,0,0*47BA
$MRC,289,296683,32.31,70.7,1009.61,0.2,0.045,-0.259,0.897,-0.05,-0.09,-0.14,0.00000,0.00000,0.0,0,0*4A02
$MRC,290,297683,32.32,70.7,1009.63,-0.0,0.045,-0.257,0.902,0.04,-0.13,0.01,0.00000,0.00000,0.0,0,0*5414
$MRC,291,298683,32.33,70.7,1009.62,0.1,0.046,-0.259,0.898,0.04,-0.18,0.03,0.00000,0.00000,0.0,0,0*85F0
$MRC,292,299683,32.33,70.6,1009.60,0.2,0.045,-0.258,0.907,-0.04,-0.12,0.01,0.00000,0.00000,0.0,0,0*985A
$MRC,293,300683,32.32,70.5,1009.61,0.2,0.045,-0.260,0.903,0.42,0.02,0.04,0.00000,0.00000,0.0,0,0*6525
$MRC,294,301683,32.34,70.6,1009.60,0.2,0.043,-0.259,0.902,0.04,-0.18,0.29,0.00000,0.00000,0.0,0,0*EEBC
$MRC,295,302683,32.34,70.5,1009.62,0.1,0.044,-0.261,0.905,0.15,0.04,0.12,0.00000,0.00000,0.0,0,0*70CE
$MRC,296,303683,32.35,70.5,1009.61,0.1,0.048,-0.260,0.895,-0.13,0.01,0.13,0.00000,0.00000,0.0,0,0*FFA4
$MRC,297,304683,32.35,70.5,1009.63,0.0,0.043,-0.261,0.899,-0.05,-0.13,0.18,0.00000,0.00000,0.0,0,0*59FB
$MRC,298,305683,32.36,70.5,1009.60,0.2,0.041,-0.258,0.903,0.12,0.07,-0.23,0.00000,0.00000,0.0,0,0*FBD6
$MRC,299,306683,32.37,70.5,1009.61,0.1,0.045,-0.257,0.902,-0.04,-0.28,0.24,0.00000,0.00000,0.0,0,0*772D
$MRC,300,307683,32.38,70.5,1009.63,0.0,0.043,-0.261,0.903,-0.08,-0.18,0.19,0.00000,0.00000,0.0,0,0*A0B7
$MRC,301,308683,32.37,70.4,1009.64,-0.1,0.043,-0.264,0.900,0.03,0.24,0.44,0.00000,0.00000,0.0,0,0*2313
$MRC,302,309683,32.38,70.4,1009.62,0.1,0.040,-0.259,0.905,0.01,0.08,-0.17,0.00000,0.00000,0.0,0,0*B2C6
$MRC,303,310683,32.39,70.4,1009.67,-0.4,0.047,-0.259,0.901,0.21,0.22,0.13,0.00000,0.00000,0.0,0,0*E20A
$MRC,304,311683,32.39,70.4,1009.63,0.0,0.043,-0.259,0.900,-0.13,0.10,-0.00,0.00000,0.00000,0.0,0,0*D4C7
$MRC,305,312683,32.40,70.4,1009.62,0.1,0.046,-0.260,0.909,-0.22,0.04,0.26,0.00000,0.00000,0.0,0,0*4157
$MRC,306,313683,32.40,70.3,1009.62,0.0,0.049,-0.258,0.903,-0.37,-0.01,0.21,0.00000,0.00000,0.0,0,0*208B
$MRC,307,314683,32.41,70.3,1009.60,0.2,0.043,-0.259,0.904,-0.13,-0.05,0.04,0.00000,0.00000,0.0,0,0*E8C5
$MRC,308,315683,32.41,70.2,1009.62,0.0,0.048,-0.255,0.900,0.07,0.14,0.03,0.00000,0.00000,0.0,0,0*DE01
$MRC,309,316683,32.42,70.2,1009.62,0.1,0.043,-0.260,0.902,0.19,0.14,0.01,0.00000,0.00000,0.0,0,0*BC51
$MRC,310,317683,32.43,70.3,1009.62,0.1,0.042,-0.257,0.904,-0.08,0.10,0.04,0.00000,0.00000,0.0,0,0*8CCA
$MRC,311,318683,32.41,70.2,1009.61,0.1,0.043,-0.261,0.908,0.19,0.33,-0.22,0.00000,0.00000,0.0,0,0*E452
$MRC,312,319683,32.42,70.2,1009.64,-0.1,0.045,-0.260,0.910,-0.02,0.14,0.10,0.00000,0.00000,0.0,0,0*4BE7
$MRC,313,320683,32.43,70.2,1009.61,0.2,0.044,-0.257,0.897,0.24,0.07,0.18,0.00000,0.00000,0.0,0,0*6E76
$MRC,314,321683,32.44,70.2,1009.61,0.2,0.042,-0.259,0.897,0.21,0.08,0.19,0.00000,0.00000,0.0,0,0*91E8
$MRC,315,322683,32.45,70.2,1009.60,0.2,0.047,-0.260,0.906,0.06,0.01,0.10,0.00000,0.00000,0.0,0,0*71B8
$MRC,316,323683,32.44,70.1,1009.62,0.1,0.045,-0.258,0.904,-0.07,0.14,0.10,0.00000,0.00000,0.0,0,0*C87C
$MRC,317,324683,32.43,70.1,1009.62,0.1,0.046,-0.258,0.898,-0.04,0.08,-0.02,0.00000,0.00000,0.0,0,0*7B94
$MRC,318,325683,32.45,70.1,1009.64,-0.1,0.043,-0.260,0.904,-0.14,-0.02,0.36,0.00000,0.00000,0.0,0,0*25B3
$MRC,319,326683,32.45,70.1,1009.61,0.1,0.046,-0.258,0.904,0.07,0.25,0.22,0.00000,0.00000,0.0,0,0*E987
$MRC,320,327683,32.46,70.2,1009.62,0.0,0.045,-0.257,0.904,0.36,0.04,0.09,0.00000,0.00000,0.0,0,0*1711
$MRC,321,328683,32.46,70.1,1009.65,-0.2,0.045,-0.259,0.905,0.04,-0.01,-0.08,0.00000,0.00000,0.0,0,0*F04F
$MRC,322,329683,32.47,70.1,1009.63,0.0,0.043,-0.261,0.903,0.21,-0.07,0.09,0.00000,0.00000,0.0,0,0*8783
$MRC,323,330683,32.47,70.1,1009.61,0.1,0.047,-0.258,0.901,0.09,-0.19,0.24,0.00000,0.00000,0.0,0,0*202D
$MRC,324,331683,32.48,70.0,1009.60,0.2,0.044,-0.260,0.896,0.24,0.04,0.19,0.00000,0.00000,0.0,0,0*1CED
$MRC,325,332683,32.49,70.0,1009.65,-0.2,0.045,-0.258,0.898,-0.17,-0.05,0.16,0.00000,0.00000,0.0,0,0*B9C5
$MRC,326,333683,32.50,70.0,1009.66,-0.3,0.045,-0.260,0.901,-0.10,-0.09,-0.19,0.00000,0.00000,0.0,0,0*D0E7
$MRC,327,334683,32.49,70.0,1009.61,0.1,0.048,-0.256,0.904,-0.04,-0.02,0.01,0.00000,0.00000,0.0,0,0*2B27
$MRC,328,335683,32.50,70.0,1009.62,0.0,0.043,-0.257,0.903,-0.08,-0.07,0.16,0.00000,0.00000,0.0,0,0*7B81
$MRC,329,336683,32.51,70.0,1009.62,0.1,0.048,-0.261,0.901,0.15,0.17,-0.02,0.00000,0.00000,0.0,0,0*A704
$MRC,330,337683,32.52,70.0,1009.64,-0.1,0.046,-0.263,0.900,-0.23,-0.18,-0.00,0.00000,0.00000,0.0,0,0*F286
$MRC,331,338683,32.51,70.0,1009.59,0.3,0.044,-0.258,0.901,-0.29,0.31,0.16,0.00000,0.00000,0.0,0,0*00F5
$MRC,332,339683,32.52,69.9,1009.63,0.0,0.042,-0.263,0.903,-0.22,0.30,0.12,0.00000,0.00000,0.0,0,0*146E
$MRC,333,340683,32.53,70.0,1009.61,0.1,0.047,-0.260,0.902,0.07,0.16,0.04,0.00000,0.00000,0.0,0,0*E6AC
$MRC,334,341683,32.54,70.0,1009.64,-0.1,0.044,-0.259,0.903,-0.23,-0.19,0.41,0.00000,0.00000,0.0,0,0*2B35
$MRC,335,342683,32.54,70.0,1009.61,0.2,0.043,-0.259,0.899,-0.14,-0.25,-0.23,0.00000,0.00000,0.0,0,0*354F
$MRC,336,343683,32.56,70.0,1009.60,0.2,0.042,-0.257,0.905,0.18,-0.05,0.21,0.00000,0.00000,0.0,0,0*DD8A
$MRC,337,344683,32.55,69.9,1009.63,0.0,0.047,-0.260,0.902,-0.07,-0.16,0.15,0.00000,0.00000,0.0,0,0*B753
$MRC,338,345683,32.55,69.8,1009.64,-0.1,0.044,-0.261,0.906,-0.23,0.19,0.09,0.00000,0.00000,0.0,0,0*7950
$MRC,339,346683,32.56,69.8,1009.62,0.1,0.048,-0.257,0.904,-0.08,-0.10,-0.02,0.00000,0.00000,0.0,0,0*C10B
$MRC,340,347683,32.56,69.9,1009.59,0.3,0.045,-0.261,0.905,0.15,0.16,0.27,0.00000,0.00000,0.0,0,0*0237
$MRC,341,348683,32.57,69.9,1009.58,0.4,0.045,-0.260,0.895,-0.13,0.16,0.07,0.00000,0.00000,0.0,0,0*D3CF
$MRC,342,349683,32.58,69.9,1009.62,0.1,0.042,-0.261,0.902,-0.08,-0.02,0.06,0.00000,0.00000,0.0,0,0*67E4
$MRC,343,350683,32.58,69.8,1009.62,0.1,0.043,-0.257,0.902,-0.10,-0.28,0.33,0.00000,0.00000,0.0,0,0*9312
$MRC,344,351683,32.59,69.8,1009.59,0.3,0.043,-0.260,0.901,-0.19,0.10,0.21,0.00000,0.00000,0.0,0,0*0A54
$MRC,345,352683,32.60,69.8,1009.56,0.5,0.046,-0.258,0.901,0.06,-0.27,0.13,0.00000,0.00000,0.0,0,0*CDE3
$MRC,346,353683,32.61,69.8,1009.59,0.3,0.049,-0.259,0.903,0.09,0.13,0.22,0.00000,0.00000,0.0,0,0*CC5F
$MRC,347,354683,32.60,69.8,1009.61,0.1,0.043,-0.263,0.906,-0.10,0.02,0.04,0.00000,0.00000,0.0,0,0*A47E
$MRC,348,355683,32.62,69.7,1009.58,0.4,0.043,-0.260,0.906,-0.07,0.08,0.18,0.00000,0.00000,0.0,0,0*911C
$MRC,349,356683,32.63,69.8,1009.61,0.1,0.047,-0.257,0.902,0.03,0.14,0.21,0.00000,0.00000,0.0,0,0*7731
$MRC,350,357683,32.64,69.8,1009.57,0.4,0.043,-0.263,0.901,0.18,-0.16,0.21,0.00000,0.00000,0.0,0,0*76C6
$MRC,351,358683,32.65,69.8,1009.58,0.4,0.042,-0.261,0.902,0.03,-0.24,0.35,0.00000,0.00000,0.0,0,0*368E
$MRC,352,359683,32.66,69.8,1009.59,0.3,0.047,-0.257,0.903,-0.04,0.17,0.13,0.00000,0.00000,0.0,0,0*D66D
$MRC,353,360683,32.66,69.8,1009.61,0.2,0.044,-0.261,0.901,-0.14,-0.13,0.26,0.00000,0.00000,0.0,0,0*3A53
$MRC,354,361683,32.67,69.8,1009.57,0.5,0.046,-0.261,0.901,0.03,0.07,0.13,0.00000,0.00000,0.0,0,0*F45A
$MRC,355,362683,32.68,69.7,1009.59,0.3,0.046,-0.260,0.905,0.16,0.14,0.03,0.00000,0.00000,0.0,0,0*4389
$MRC,356,363683,32.68,69.6,1009.61,0.2,0.044,-0.260,0.900,0.07,-0.12,0.15,0.00000,0.00000,0.0,0,0*B4DD
$MRC,357,364683,32.69,69.5,1009.58,0.4,0.044,-0.261,0.906,0.09,0.17,0.15,0.00000,0.00000,0.0,0,0*45ED
$MRC,358,365683,32.70,69.6,1009.61,0.2,0.046,-0.260,0.907,-0.07,-0.13,-0.19,0.00000,0.00000,0.0,0,0*DE90
$MRC,359,366683,32.71,69.5,1009.60,0.2,0.049,-0.262,0.906,0.01,-0.09,-0.03,0.00000,0.00000,0.0,0,0*0FD9
$MRC,360,367683,32.72,69.4,1009.59,0.4,0.043,-0.258,0.903,-0.14,-0.09,0.26,0.00000,0.00000,0.0,0,0*0516
$MRC,361,368683,32.72,69.4,1009.56,0.5,0.046,-0.259,0.900,0.01,0.20,0.15,0.00000,0.00000,0.0,0,0*C44A
$MRC,362,369683,32.73,69.4,1009.57,0.5,0.044,-0.257,0.900,-0.26,0.01,-0.05,0.00000,0.00000,0.0,0,0*AD04
$MRC,363,370683,32.74,69.4,1009.58,0.4,0.045,-0.258,0.899,0.15,0.10,0.10,0.00000,0.00000,0.0,0,0*228F
$MRC,364,371683,32.75,69.4,1009.59,0.3,0.046,-0.256,0.903,0.03,-0.09,0.15,0.00000,0.00000,0.0,0,0*771D
$MRC,365,372683,32.77,69.5,1009.59,0.3,0.046,-0.263,0.903,-0.08,0.14,0.13,0.00000,0.00000,0.0,0,0*3095
$MRC,366,373683,32.78,69.4,1009.60,0.2,0.045,-0.257,0.904,0.03,0.05,0.16,0.00000,0.00000,0.0,0,0*0A1B
$MRC,367,374683,32.79,69.4,1009.61,0.2,0.047,-0.259,0.904,-0.13,0.08,-0.13,0.00000,0.00000,0.0,0,0*5A69
$MRC,368,375683,32.79,69.4,1009.58,0.4,0.045,-0.259,0.906,-0.23,-0.15,-0.00,0.00000,0.00000,0.0,0,0*4DA5
$MRC,369,376683,32.80,69.3,1009.59,0.3,0.044,-0.262,0.897,-0.13,-0.36,-0.00,0.00000,0.00000,0.0,0,0*93BC
$MRC,370,377683,32.80,69.3,1009.60,0.3,0.045,-0.260,0.906,-0.13,-0.13,0.32,0.00000,0.00000,0.0,0,0*CD05
$MRC,371,378683,32.81,69.2,1009.63,-0.0,0.043,-0.258,0.897,0.19,0.08,0.18,0.00000,0.00000,0.0,0,0*9113
$MRC,372,379683,32.82,69.2,1009.59,0.3,0.042,-0.261,0.900,0.04,-0.10,0.07,0.00000,0.00000,0.0,0,0*4FA3
$MRC,373,380683,32.82,69.1,1009.59,0.3,0.043,-0.259,0.905,0.01,-0.16,0.07,0.00000,0.00000,0.0,0,0*3044
$MRC,374,381683,32.82,69.1,1009.58,0.4,0.045,-0.258,0.902,-0.08,-0.09,0.22,0.00000,0.00000,0.0,0,0*A54B
$MRC,375,382683,32.82,69.1,1009.60,0.2,0.049,-0.262,0.906,0.09,0.14,-0.08,0.00000,0.00000,0.0,0,0*1886
$MRC,376,383683,32.83,69.1,1009.57,0.0,0.048,-0.253,0.902,0.06,0.01,0.24,0.00000,0.00000,0.0,0,0*0476
$MRC,377,384683,32.84,69.1,1009.59,0.3,0.043,-0.260,0.900,0.12,0.13,0.27,0.00000,0.00000,0.0,0,0*968B
$MRC,378,385683,32.85,69.1,1009.60,0.2,0.046,-0.260,0.901,-0.13,0.07,0.07,0.00000,0.00000,0.0,0,0*224D
$MRC,379,386683,32.86,69.1,1009.58,0.4,0.044,-0.262,0.893,0.03,-0.09,0.21,0.00000,0.00000,0.0,0,0*EFD1
$MRC,380,387683,32.87,69.1,1009.60,0.2,0.043,-0.260,0.901,-0.00,0.14,0.41,0.00000,0.00000,0.0,0,0*3A69
$MRC,381,388683,32.87,69.1,1009.63,0.0,0.045,-0.264,0.903,-0.11,0.08,-0.11,0.00000,0.00000,0.0,0,0*AA85
$MRC,382,389683,32.88,69.0,1009.59,0.3,0.070,-0.289,0.844,-0.46,-1.46,-0.74,0.00000,0.00000,0.0,0,0*7171
$MRC,383,390683,32.88,68.9,1009.59,0.3,0.094,-0.304,0.582,0.03,11.59,-2.98,0.00000,0.00000,0.0,0,0*480C
$MRC,384,391683,32.89,68.9,1009.59,0.3,0.014,-0.589,0.759,-5.88,-18.96,11.97,0.00000,0.00000,0.0,0,0*F80D
$MRC,385,392683,32.90,69.0,1009.62,0.1,0.031,-0.618,0.763,-1.20,1.91,1.61,0.00000,0.00000,0.0,0,0*18DB
$MRC,386,393683,32.91,68.9,1009.62,0.1,-0.037,-0.293,0.879,3.71,0.16,-0.20,0.00000,0.00000,0.0,0,0*21F1
$MRC,387,394683,32.92,69.0,1009.61,0.2,-0.051,-0.293,0.893,-0.14,0.05,-0.14,0.00000,0.00000,0.0,0,0*913C
$MRC,388,395683,32.92,68.9,1009.59,0.3,-0.044,-0.251,0.879,-9.88,-26.71,-3.50,0.00000,0.00000,0.0,0,0*7786
$MRC,389,396683,32.92,69.0,1009.59,0.3,-0.035,-0.255,0.894,-6.11,-4.65,-0.00,0.00000,0.00000,0.0,0,0*5486
$MRC,390,397683,32.94,69.0,1009.59,0.3,-0.300,-0.148,0.922,4.32,39.20,25.06,0.00000,0.00000,0.0,0,0*B6E2
$MRC,391,398683,32.95,69.1,1009.61,0.2,-0.270,-0.104,0.864,-30.33,-28.56,0.65,0.00000,0.00000,0.0,0,0*0F64
$MRC,392,399683,32.96,69.4,1009.56,0.6,-0.096,-0.151,0.829,-67.24,-35.51,-21.67,0.00000,0.00000,0.0,0,0*A19A
$MRC,393,400683,32.97,69.8,1009.59,0.3,0.309,-0.060,0.877,22.58,-4.21,90.41,0.00000,0.00000,0.0,0,0*52C7
$MRC,394,401683,32.97,70.3,1009.57,0.5,0.233,0.120,0.820,38.22,32.13,-32.62,0.00000,0.00000,0.0,0,0*1949
$MRC,395,402683,32.96,69.9,1009.57,0.5,0.148,-0.070,0.896,10.38,5.01,44.22,0.00000,0.00000,0.0,0,0*30BC
$MRC,396,403683,32.96,69.7,1009.59,0.3,0.195,-0.023,0.857,12.41,25.03,20.90,0.00000,0.00000,0.0,0,0*6FA0
$MRC,397,404683,32.96,69.4,1009.54,0.7,0.182,-0.046,0.875,-10.68,6.60,42.88,0.00000,0.00000,0.0,0,0*4685
$MRC,398,405683,32.93,69.1,1009.57,0.5,0.236,0.081,0.730,2.87,-19.26,-1.68,0.00000,0.00000,0.0,0,0*5284
$MRC,399,406683,32.91,69.1,1009.56,0.6,0.218,-0.068,0.925,13.83,6.37,-26.25,0.00000,0.00000,0.0,0,0*89C0
$MRC,400,407683,32.92,69.2,1009.55,0.6,0.250,-0.003,1.016,5.98,10.91,-16.31,0.00000,0.00000,0.0,0,0*E5DE
$MRC,401,408683,32.91,69.1,1009.57,0.5,0.095,0.072,0.872,9.81,0.25,13.80,0.00000,0.00000,0.0,0,0*3296
$MRC,402,409683,32.88,69.0,1009.57,0.5,0.130,0.028,0.911,-2.29,-1.23,0.88,0.00000,0.00000,0.0,0,0*8851
$MRC,403,410683,32.86,69.0,1009.58,0.4,0.106,0.027,0.917,0.68,2.89,-2.49,0.00000,0.00000,0.0,0,0*20E9
$MRC,404,411683,32.85,69.1,1009.56,0.6,0.092,0.003,0.914,-2.36,-0.15,3.54,0.00000,0.00000,0.0,0,0*2F2E
$MRC,405,412683,32.84,69.1,1009.56,0.6,0.068,0.012,0.897,0.27,-2.10,6.29,0.00000,0.00000,0.0,0,0*7826
$MRC,406,413683,32.84,69.4,1009.56,0.6,0.086,0.011,0.951,5.19,-0.38,8.94,0.00000,0.00000,0.0,0,0*E127
$MRC,407,414683,32.84,69.5,1009.57,0.5,0.223,-0.129,0.991,3.58,-4.33,-47.32,0.00000,0.00000,0.0,0,0*708C
$MRC,408,415683,32.83,69.4,1009.54,0.7,0.152,-0.091,0.899,1.92,-5.69,-19.73,0.00000,0.00000,0.0,0,0*51C2
$MRC,409,416683,32.82,69.5,1009.57,0.5,0.092,-0.153,0.898,-5.75,-20.31,66.45,0.00000,0.00000,0.0,0,0*008B
$MRC,410,417683,32.82,69.5,1009.59,0.3,0.091,-0.352,0.930,22.65,-17.64,-52.45,0.00000,0.00000,0.0,0,0*8D87
$MRC,411,418683,32.81,69.3,1009.59,0.3,-0.045,-0.108,1.022,19.20,15.44,-50.43,0.00000,0.00000,0.0,0,0*8856
$MRC,412,419683,32.81,69.4,1009.56,0.6,0.150,-0.185,1.014,25.28,-0.42,-18.77,0.00000,0.00000,0.0,0,0*76D8
$MRC,413,420683,32.82,70.0,1009.55,0.6,0.074,-0.090,0.893,-11.27,-5.67,6.15,0.00000,0.00000,0.0,0,0*F27F
$MRC,414,421683,32.83,70.4,1009.57,0.5,0.138,-0.040,0.917,8.39,23.41,71.54,0.00000,0.00000,0.0,0,0*6D3E
$MRC,415,422683,32.83,70.2,1009.58,0.4,0.159,0.032,0.826,5.63,11.30,41.23,0.00000,0.00000,0.0,0,0*459A
$MRC,416,423683,32.74,69.9,1009.55,0.6,0.282,-0.317,0.796,-2.92,-18.21,15.90,0.00000,0.00000,0.0,0,0*87B6
$MRC,417,424683,32.70,69.8,1009.57,0.6,0.280,-0.241,0.847,17.58,10.37,-5.78,0.00000,0.00000,0.0,0,0*577C
$MRC,418,425683,32.71,69.8,1009.55,0.6,0.190,-0.176,0.859,-19.78,-13.75,-34.10,0.00000,0.00000,0.0,0,0*9BB8
$MRC,419,426683,32.70,69.8,1009.55,0.7,0.171,-0.179,0.891,-23.78,23.81,-41.74,0.00000,0.00000,0.0,0,0*A2C4
$MRC,420,427683,32.66,69.8,1009.58,0.4,0.133,-0.045,1.025,22.88,8.19,-40.20,0.00000,0.00000,0.0,0,0*C974
$MRC,421,428683,32.61,69.8,1009.55,0.6,0.206,-0.037,0.835,-11.56,22.54,3.93,0.00000,0.00000,0.0,0,0*2679
$MRC,422,429683,32.62,69.9,1009.56,0.5,-0.032,-0.107,0.973,1.71,-9.86,-20.75,0.00000,0.00000,0.0,0,0*9B20
$MRC,423,430683,32.56,69.9,1009.56,0.5,0.184,-0.072,0.880,-6.58,-9.72,6.71,0.00000,0.00000,0.0,0,0*C7F6
$MRC,424,431683,32.53,70.0,1009.61,0.2,0.056,-0.099,0.911,1.02,31.20,-23.13,0.00000,0.00000,0.0,0,0*9849
$MRC,425,432683,32.52,70.0,1009.56,0.6,0.135,-0.096,0.915,-5.75,7.33,-24.00,0.00000,0.00000,0.0,0,0*2DFC
$MRC,426,433683,32.51,70.0,1009.63,0.3,-0.067,-0.160,0.977,-4.42,1.15,31.49,0.00000,0.00000,0.0,0,0*EC64
$MRC,427,434683,32.49,70.1,1009.61,0.1,0.102,-0.158,0.884,0.48,-6.89,-4.26,0.00000,0.00000,0.0,0,0*529B
$MRC,428,435683,32.49,70.2,1009.61,0.2,0.192,-0.216,1.064,0.59,7.90,-4.62,0.00000,0.00000,0.0,0,0*9CB2
$MRC,429,436683,32.46,70.2,1009.64,-0.1,-0.032,-0.171,0.881,-11.52,-9.57,52.19,0.00000,0.00000,0.0,0,0*7909
$MRC,430,437683,32.47,70.3,1009.59,0.3,0.116,-0.134,0.859,-21.04,-6.62,79.34,0.00000,0.00000,0.0,0,0*8341
$MRC,431,438683,32.49,70.2,1009.60,0.2,0.156,-0.171,0.911,-1.32,2.89,-10.05,0.00000,0.00000,0.0,0,0*F8DE
$MRC,432,439683,32.51,70.5,1009.63,-0.1,0.125,-0.188,0.910,2.09,-1.83,-4.19,0.00000,0.00000,0.0,0,0*011E
$MRC,433,440683,32.51,71.3,1009.61,0.1,0.111,-0.121,0.854,8.00,-4.77,2.65,0.00000,0.00000,0.0,0,0*D36A
$MRC,434,441683,32.52,71.3,1009.61,0.2,0.114,-0.140,0.922,1.38,1.55,-1.03,0.00000,0.00000,0.0,0,0*31DD
$MRC,435,442683,32.53,71.4,1009.62,-0.0,0.135,-0.200,0.909,4.32,-2.67,-0.34,0.00000,0.00000,0.0,0,0*E0A5
$MRC,436,443683,32.54,71.5,1009.61,0.2,0.167,-0.157,0.908,-2.86,0.27,-1.81,0.00000,0.00000,0.0,0,0*4F6D
$MRC,437,444683,32.55,71.3,1009.54,0.7,0.148,-0.153,0.939,2.82,2.54,-4.32,0.00000,0.00000,0.0,0,0*F378
$MRC,438,445683,32.56,71.2,1009.59,0.3,0.192,-0.131,0.900,-3.07,-1.32,3.46,0.00000,0.00000,0.0,0,0*A43C
$MRC,439,446683,32.58,71.4,1009.56,0.6,0.165,-0.132,0.916,-1.00,2.68,-2.25,0.00000,0.00000,0.0,0,0*6574
$MRC,440,447683,32.58,71.4,1009.58,0.4,0.153,-0.135,0.922,-1.45,0.97,-5.74,0.00000,0.00000,0.0,0,0*2D6F
$MRC,441,448683,32.60,72.1,1009.54,0.7,0.146,-0.152,0.926,-1.76,0.82,0.88,0.00000,0.00000,0.0,0,0*64B9
$MRC,442,449683,32.61,72.0,1009.59,0.3,0.130,-0.168,0.919,-0.49,1.78,0.04,0.00000,0.00000,0.0,0,0*C703
$MRC,443,450683,32.62,71.9,1009.57,0.5,0.127,-0.162,0.898,-1.44,1.46,-2.36,0.00000,0.00000,0.0,0,0*86E3
$MRC,444,451683,32.63,71.7,1009.58,0.4,0.138,-0.166,0.904,-0.45,-0.10,1.34,0.00000,0.00000,0.0,0,0*D392
$MRC,445,452683,32.64,71.7,1009.59,0.3,0.148,-0.174,0.905,1.60,0.14,-4.07,0.00000,0.00000,0.0,0,0*5F0D
$MRC,446,453683,32.64,71.6,1009.57,0.5,0.139,-0.184,0.904,4.19,-5.96,19.09,0.00000,0.00000,0.0,0,0*A308
$MRC,447,454683,32.65,71.8,1009.59,0.3,0.187,-0.281,1.015,5.13,14.77,-29.29,0.00000,0.00000,0.0,0,0*3C9E
$MRC,448,455683,32.66,71.8,1009.61,0.1,0.165,-0.221,0.947,-7.56,8.05,11.83,0.00000,0.00000,0.0,0,0*85E6
$MRC,449,456683,32.66,71.3,1009.57,0.5,0.109,-0.167,0.860,1.29,-1.95,-14.32,0.00000,0.00000,0.0,0,0*1A4F
$MRC,450,457683,32.67,71.6,1009.57,0.4,0.170,-0.172,0.899,-0.77,0.85,0.09,0.00000,0.00000,0.0,0,0*E4D6
$MRC,451,458683,32.68,71.8,1009.60,0.2,0.136,-0.195,0.926,-1.70,3.70,-3.58,0.00000,0.00000,0.0,0,0*AE23
$MRC,452,459683,32.68,71.3,1009.55,0.6,0.095,-0.220,0.949,-1.06,-0.02,1.19,0.00000,0.00000,0.0,0,0*B53A
$MRC,453,460683,32.69,71.2,1009.58,0.4,0.100,-0.210,0.921,-0.89,1.87,0.74,0.00000,0.00000,0.0,0,0*94D0
$MRC,454,461683,32.70,71.2,1009.60,0.2,0.087,-0.206,0.902,-1.06,-1.95,1.23,0.00000,0.00000,0.0,0,0*F36B
$MRC,455,462683,32.71,71.5,1009.57,0.4,0.079,-0.207,0.908,-1.10,0.66,5.84,0.00000,0.00000,0.0,0,0*003D
$MRC,456,463683,32.71,71.8,1009.57,0.5,0.053,-0.204,0.902,-1.81,-0.45,4.41,0.00000,0.00000,0.0,0,0*8714
$MRC,457,464683,32.73,71.9,1009.58,0.4,0.116,-0.225,0.897,-5.73,2.07,-18.69,0.00000,0.00000,0.0,0,0*40F1
$MRC,458,465683,32.73,71.7,1009.55,0.7,0.080,-0.215,0.934,7.92,15.47,-15.23,0.00000,0.00000,0.0,0,0*573F
$MRC,459,466683,32.74,71.6,1009.57,0.5,0.103,-0.227,0.881,0.56,-0.73,-0.36,0.00000,0.00000,0.0,0,0*9BE2
$MRC,460,467683,32.76,72.6,1009.60,0.2,0.081,-0.213,0.901,1.34,-0.45,-3.88,0.00000,0.00000,0.0,0,0*2927
$MRC,461,468683,32.77,73.1,1009.56,0.5,0.072,-0.214,0.907,-0.04,0.69,-0.49,0.00000,0.00000,0.0,0,0*391D
$MRC,462,469683,32.78,73.1,1009.58,0.4,0.088,-0.209,0.905,-0.00,1.04,0.87,0.00000,0.00000,0.0,0,0*F5CA
$MRC,463,470683,32.78,72.7,1009.59,0.3,0.084,-0.212,0.908,-0.04,2.59,2.70,0.00000,0.00000,0.0,0,0*BFE3
$MRC,464,471683,32.79,72.2,1009.60,0.2,0.085,-0.216,0.895,0.77,-0.86,-0.74,0.00000,0.00000,0.0,0,0*7DEC
$MRC,465,472683,32.80,72.0,1009.61,0.2,0.078,-0.211,0.918,-0.65,2.85,-2.84,0.00000,0.00000,0.0,0,0*65EA
$MRC,466,473683,32.81,72.1,1009.59,0.3,0.069,-0.204,0.916,1.51,2.95,2.00,0.00000,0.00000,0.0,0,0*10E1
$MRC,467,474683,32.82,72.2,1009.58,0.4,0.084,-0.216,0.893,-1.94,0.42,1.89,0.00000,0.00000,0.0,0,0*5DA6
$MRC,468,475683,32.83,72.1,1009.61,0.2,0.167,-0.321,0.894,-66.62,-27.34,-4.55,0.00000,0.00000,0.0,0,0*6FAD
$MRC,469,476683,32.83,71.9,1009.61,0.2,0.097,-0.312,0.878,-2.77,5.03,0.67,0.00000,0.00000,0.0,0,0*D747
$MRC,470,477683,32.84,72.4,1009.58,0.4,0.165,-0.289,0.864,1.69,5.66,-8.29,0.00000,0.00000,0.0,0,0*4CE0
$MRC,471,478683,32.84,72.1,1009.60,0.2,0.107,-0.304,0.909,-0.10,-1.03,0.73,0.00000,0.00000,0.0,0,0*02BF
$MRC,472,479683,32.86,72.4,1009.58,0.4,0.103,-0.220,0.885,11.29,-1.14,10.97,0.00000,0.00000,0.0,0,0*585B
$MRC,473,480683,32.87,72.5,1009.57,0.5,0.107,-0.224,0.897,0.35,-1.26,-0.43,0.00000,0.00000,0.0,0,0*0B4D
$MRC,474,481683,32.87,72.5,1009.55,0.6,0.093,-0.252,0.886,4.68,-1.89,6.47,0.00000,0.00000,0.0,0,0*6593
$MRC,475,482683,32.89,72.7,1009.57,0.4,0.140,-0.246,0.893,-3.78,-4.92,1.49,0.00000,0.00000,0.0,0,0*D585
$MRC,476,483683,32.90,72.9,1009.57,0.5,0.102,-0.244,0.896,-0.19,-1.54,3.98,0.00000,0.00000,0.0,0,0*7599
$MRC,477,484683,32.91,72.9,1009.57,0.5,0.111,-0.119,0.905,-6.13,-13.05,6.26,0.00000,0.00000,0.0,0,0*D6DC
$MRC,478,485683,32.92,72.7,1009.60,0.2,0.175,0.118,0.853,44.88,-3.76,-16.29,0.00000,0.00000,0.0,0,0*AC02
$MRC,479,486683,32.92,72.7,1009.59,0.3,0.093,0.549,0.692,24.96,-3.06,-3.47,0.00000,0.00000,0.0,0,0*4D24
$MRC,480,487683,32.93,72.4,1009.59,0.3,0.075,0.709,0.522,6.96,-0.67,-0.84,0.00000,0.00000,0.0,0,0*A2C5
$MRC,481,488683,32.94,72.1,1009.57,0.5,0.077,0.698,0.537,-0.26,-1.06,-1.52,0.00000,0.00000,0.0,0,0*FDD2
$MRC,482,489683,32.95,71.9,1009.58,0.4,0.151,-0.016,0.921,5.60,2.49,10.03,0.00000,0.00000,0.0,0,0*DB6D
$MRC,483,490683,32.94,71.2,1009.57,0.5,0.021,0.049,0.903,3.87,5.47,7.74,0.00000,0.00000,0.0,0,0*FEA7
$MRC,484,491683,32.95,70.9,1009.57,0.5,0.132,0.085,0.859,51.31,-27.18,13.05,0.00000,0.00000,0.0,0,0*71A0
$MRC,485,492683,32.95,70.5,1009.59,0.3,0.234,-0.038,0.953,-10.54,-19.15,-1.71,0.00000,0.00000,0.0,0,0*E8E5
$MRC,486,493683,32.96,70.6,1009.58,0.4,0.191,0.012,0.939,-0.55,7.58,-7.91,0.00000,0.00000,0.0,0,0*0ED6
$MRC,487,494683,32.97,70.6,1009.62,0.0,0.120,0.127,0.923,2.51,6.77,5.92,0.00000,0.00000,0.0,0,0*C439
$MRC,488,495683,32.98,70.6,1009.57,0.5,0.138,0.098,0.892,3.61,6.79,-1.18,0.00000,0.00000,0.0,0,0*A8F5
$MRC,489,496683,32.99,70.6,1009.62,0.1,0.116,0.120,0.833,0.90,-16.04,14.32,0.00000,0.00000,0.0,0,0*3183
$MRC,490,497683,33.00,70.5,1009.58,0.4,0.104,0.147,0.870,4.18,-5.46,-4.58,0.00000,0.00000,0.0,0,0*1C01
$MRC,491,498683,33.01,70.4,1009.60,0.3,0.150,0.053,0.878,-4.52,-15.08,-30.37,0.00000,0.00000,0.0,0,0*26E2
$MRC,492,499683,32.97,69.8,1009.59,0.3,0.073,0.104,0.901,-1.04,-11.96,-30.05,0.00000,0.00000,0.0,0,0*13A9
$MRC,493,500683,32.94,69.6,1009.57,0.5,-0.022,0.196,0.907,-32.05,25.91,18.90,0.00000,0.00000,0.0,0,0*B499
$MRC,494,501683,32.94,69.6,1009.56,0.5,0.107,0.133,0.799,10.90,-6.21,-9.52,0.00000,0.00000,0.0,0,0*4EF3
$MRC,495,502683,32.93,69.5,1009.58,0.4,0.091,0.165,0.752,0.07,8.19,26.44,0.00000,0.00000,0.0,0,0*8856
$MRC,496,503683,32.89,69.5,1009.65,-0.2,-0.145,-0.017,0.983,6.36,-1.52,53.06,0.00000,0.00000,0.0,0,0*9EF1
$MRC,497,504683,32.87,69.4,1009.61,0.2,-0.045,-0.028,0.904,39.48,41.76,40.48,0.00000,0.00000,0.0,0,0*04BC
$MRC,498,505683,32.84,69.4,1009.60,0.3,0.164,0.053,0.827,1.46,-7.41,21.42,0.00000,0.00000,0.0,0,0*FEAF
$MRC,499,506683,32.85,69.5,1009.63,-0.1,0.091,-0.087,0.844,12.06,4.65,-3.64,0.00000,0.00000,0.0,0,0*1C56
$MRC,500,507683,32.86,69.5,1009.64,-0.1,0.152,0.187,1.214,49.81,4.48,-47.53,0.00000,0.00000,0.0,0,0*B399
$MRC,501,508683,32.86,69.4,1009.62,0.0,0.181,-0.050,0.909,-14.31,-5.18,-0.19,0.00000,0.00000,0.0,0,0*1F70
$MRC,502,509683,32.83,69.4,1009.63,-0.0,0.003,0.015,1.030,-11.50,-4.73,-49.53,0.00000,0.00000,0.0,0,0*4AC2
$MRC,503,510683,32.78,69.4,1009.58,0.4,0.066,0.080,1.096,-2.84,19.53,32.06,0.00000,0.00000,0.0,0,0*EC63
$MRC,504,511683,32.75,69.4,1009.58,0.4,-0.020,0.248,0.814,-21.32,19.82,57.69,0.00000,0.00000,0.0,0,0*C4EE
$MRC,505,512683,32.73,69.3,1009.59,0.3,-0.054,0.050,0.879,-15.59,10.02,34.58,0.00000,0.00000,0.0,0,0*D9D2
$MRC,506,513683,32.70,69.1,1009.61,0.2,-0.053,0.023,0.904,-41.99,30.57,35.14,0.00000,0.00000,0.0,0,0*5093
$MRC,507,514683,32.68,69.1,1009.60,0.2,0.017,0.051,0.905,-4.55,-20.86,-11.13,0.00000,0.00000,0.0,0,0*7423
$MRC,508,515683,32.60,69.1,1009.64,-0.1,0.001,-0.005,0.878,10.41,-7.54,-27.13,0.00000,0.00000,0.0,0,0*4093
$MRC,509,516683,32.55,69.2,1009.63,0.0,0.098,-0.076,0.856,24.56,-7.21,-33.32,0.00000,0.00000,0.0,0,0*5E69
$MRC,510,517683,32.54,69.2,1009.59,0.3,0.096,-0.036,1.019,20.67,-16.73,-18.71,0.00000,0.00000,0.0,0,0*55A2
$MRC,511,518683,32.55,69.2,1009.61,0.2,0.183,-0.037,0.885,-13.53,0.79,2.27,0.00000,0.00000,0.0,0,0*BE08
$MRC,512,519683,32.53,69.2,1009.61,0.2,-0.070,-0.047,0.896,-11.29,6.72,43.57,0.00000,0.00000,0.0,0,0*CB69
$MRC,513,520683,32.42,69.3,1009.64,-0.1,-0.043,0.038,0.871,22.44,-5.63,15.00,0.00000,0.00000,0.0,0,0*7616
$MRC,514,521683,32.41,69.4,1009.62,0.1,-0.023,0.033,0.815,24.16,-4.54,-33.21,0.00000,0.00000,0.0,0,0*7738
$MRC,515,522683,32.39,69.4,1009.63,-0.0,0.070,0.015,0.807,-17.64,-0.28,-29.42,0.00000,0.00000,0.0,0,0*5D0D
$MRC,516,523683,32.34,69.5,1009.58,0.4,0.112,-0.059,1.099,11.19,-5.67,-6.23,0.00000,0.00000,0.0,0,0*A7CB
$MRC,517,524683,32.37,69.5,1009.62,0.1,0.068,-0.034,0.955,-20.98,8.72,15.97,0.00000,0.00000,0.0,0,0*47B2
$MRC,518,525683,32.38,69.5,1009.64,-0.1,0.019,-0.007,0.952,10.22,-14.77,40.01,0.00000,0.00000,0.0,0,0*F3D7
$MRC,519,526683,32.37,69.5,1009.64,-0.1,-0.074,0.038,0.918,-19.16,-13.47,14.16,0.00000,0.00000,0.0,0,0*1E17
$MRC,520,527683,32.30,69.6,1009.64,-0.1,0.054,0.028,0.736,19.81,-20.70,-32.29,0.00000,0.00000,0.0,0,0*50AA
$MRC,521,528683,32.27,69.7,1009.66,-0.2,0.034,-0.007,0.854,22.85,8.65,-24.19,0.00000,0.00000,0.0,0,0*5015
$MRC,522,529683,32.26,69.8,1009.65,-0.2,0.125,0.032,0.796,2.50,-2.21,4.85,0.00000,0.00000,0.0,0,0*58CD
$MRC,523,530683,32.24,69.9,1009.63,-0.1,0.150,0.005,0.941,-2.23,-11.96,5.58,0.00000,0.00000,0.0,0,0*C94D
$MRC,524,531683,32.23,70.0,1009.62,0.1,0.181,-0.072,0.943,-18.60,5.49,16.32,0.00000,0.00000,0.0,0,0*BEB4
$MRC,525,532683,32.23,70.0,1009.60,0.2,0.096,-0.160,0.989,-18.46,10.27,40.47,0.00000,0.00000,0.0,0,0*4AE0
$MRC,526,533683,32.25,70.1,1009.65,-0.2,0.025,-0.093,0.869,-9.42,0.10,87.06,0.00000,0.00000,0.0,0,0*E90B
$MRC,527,534683,32.25,70.2,1009.65,-0.1,0.048,-0.096,0.946,4.88,-2.19,-2.75,0.00000,0.00000,0.0,0,0*FA8C
$MRC,528,535683,32.25,70.3,1009.62,0.0,0.142,-0.120,0.899,1.78,6.01,0.84,0.00000,0.00000,0.0,0,0*3B56
$MRC,529,536683,32.27,70.5,1009.63,0.0,0.168,-0.129,0.902,-5.58,8.89,-20.65,0.00000,0.00000,0.0,0,0*ECAA
$MRC,530,537683,32.28,70.7,1009.64,-0.1,0.072,-0.083,0.900,4.16,-12.02,-3.55,0.00000,0.00000,0.0,0,0*CE21
$MRC,531,538683,32.30,70.9,1009.66,-0.3,0.137,-0.134,0.916,-7.88,-4.74,11.06,0.00000,0.00000,0.0,0,0*E676
$MRC,532,539683,32.31,71.0,1009.66,-0.3,0.123,-0.095,0.888,0.84,6.10,3.25,0.00000,0.00000,0.0,0,0*CC8F
$MRC,533,540683,32.32,70.9,1009.65,-0.2,0.074,-0.049,0.927,2.85,3.09,1.63,0.00000,0.00000,0.0,0,0*7362
$MRC,534,541683,32.33,70.8,1009.64,-0.1,0.093,-0.070,0.913,-1.20,-1.78,-0.86,0.00000,0.00000,0.0,0,0*E8DA
$MRC,535,542683,32.35,70.6,1009.64,-0.1,0.029,-0.074,0.935,-5.45,10.69,-3.41,0.00000,0.00000,0.0,0,0*927A
$MRC,536,543683,32.36,70.5,1009.66,-0.3,0.086,-0.063,0.896,-0.28,-5.89,-3.29,0.00000,0.00000,0.0,0,0*36E1
$MRC,537,544683,32.37,70.4,1009.66,-0.3,0.063,-0.043,0.930,2.55,7.41,1.58,0.00000,0.00000,0.0,0,0*A3B3
$MRC,538,545683,32.38,70.3,1009.65,-0.2,0.087,-0.061,0.923,1.22,-1.95,1.45,0.00000,0.00000,0.0,0,0*760C
$MRC,539,546683,32.39,70.2,1009.64,-0.1,0.096,-0.047,0.903,1.29,3.72,3.78,0.00000,0.00000,0.0,0,0*2E29
$MRC,540,547683,32.41,70.1,1009.65,-0.2,0.069,-0.033,0.895,0.97,-1.96,-0.20,0.00000,0.00000,0.0,0,0*1C91
$MRC,541,548683,32.43,70.0,1009.66,-0.3,0.042,-0.049,0.896,-3.18,-0.68,-0.87,0.00000,0.00000,0.0,0,0*088D
$MRC,542,549683,32.44,69.9,1009.69,-0.5,0.117,-0.085,0.862,-5.84,14.02,-9.49,0.00000,0.00000,0.0,0,0*FEAA
$MRC,543,550683,32.45,69.9,1009.69,-0.6,0.112,-0.072,0.899,-1.75,-0.02,-3.27,0.00000,0.00000,0.0,0,0*501F
$MRC,544,551683,32.47,69.9,1009.67,-0.4,0.053,-0.064,0.912,-4.04,5.50,-10.54,0.00000,0.00000,0.0,0,0*C1D3
$MRC,545,552683,32.48,69.9,1009.64,-0.1,0.054,-0.094,0.924,0.44,-1.47,-1.23,0.00000,0.00000,0.0,0,0*661F
$MRC,546,553683,32.49,69.9,1009.68,-0.4,0.081,-0.074,0.908,1.95,2.30,-2.52,0.00000,0.00000,0.0,0,0*7BB9
$MRC,547,554683,32.51,69.9,1009.66,-0.3,0.086,-0.088,1.005,3.19,7.99,-10.40,0.00000,0.00000,0.0,0,0*71FF
$MRC,548,555683,32.50,69.7,1009.65,-0.2,-0.009,-0.040,0.865,-10.95,-14.45,-23.91,0.00000,0.00000,0.0,0,0*24A5
$MRC,549,556683,32.52,69.7,1009.70,-0.6,-0.177,-0.111,0.905,-9.82,22.27,49.55,0.00000,0.00000,0.0,0,0*0907
$MRC,550,557683,32.53,69.7,1009.67,-0.4,-0.191,-0.049,0.864,-2.13,-9.64,1.63,0.00000,0.00000,0.0,0,0*E0EE
$MRC,551,558683,32.53,70.1,1009.66,-0.2,0.014,-0.160,0.914,-3.70,5.15,5.64,0.00000,0.00000,0.0,0,0*77EF
$MRC,552,559683,32.55,70.3,1009.65,-0.2,0.017,-0.179,0.845,3.74,4.13,7.08,0.00000,0.00000,0.0,0,0*3156
$MRC,553,560683,32.56,70.4,1009.65,-0.2,-0.029,-0.013,0.924,-1.93,-18.51,2.84,0.00000,0.00000,0.0,0,0*2613
$MRC,554,561683,32.57,70.7,1009.65,-0.2,0.241,-0.012,0.923,18.29,24.14,-34.52,0.00000,0.00000,0.0,0,0*E6FF
$MRC,555,562683,32.57,70.5,1009.62,0.1,0.346,-0.011,0.823,0.53,2.88,1.11,0.00000,0.00000,0.0,0,0*643E
$MRC,556,563683,32.60,70.7,1009.67,-0.4,0.363,-0.045,0.862,2.00,6.75,-3.67,0.00000,0.00000,0.0,0,0*360C
$MRC,557,564683,32.61,70.7,1009.66,-0.3,0.323,-0.042,0.878,2.24,-2.21,-0.94,0.00000,0.00000,0.0,0,0*3EB9
$MRC,558,565683,32.63,70.6,1009.62,0.1,0.313,-0.041,0.878,0.99,1.14,5.64,0.00000,0.00000,0.0,0,0*343B
$MRC,559,566683,32.65,70.6,1009.63,0.0,0.323,-0.048,0.879,-0.75,0.42,-3.82,0.00000,0.00000,0.0,0,0*E26D
$MRC,560,567683,32.66,70.4,1009.65,-0.2,0.293,-0.042,0.878,-0.00,1.44,2.55,0.00000,0.00000,0.0,0,0*9C6F
$MRC,561,568683,32.67,70.1,1009.63,-0.0,0.302,-0.069,0.883,-1.88,-0.12,-0.52,0.00000,0.00000,0.0,0,0*4EDD
$MRC,562,569683,32.68,69.8,1009.65,-0.2,0.318,-0.044,0.881,0.87,-1.05,0.42,0.00000,0.00000,0.0,0,0*1806
$MRC,563,570683,32.70,69.6,1009.63,-0.0,0.315,-0.048,0.876,-0.33,-2.21,-2.68,0.00000,0.00000,0.0,0,0*7A75
$MRC,564,571683,32.70,69.9,1009.64,-0.1,0.241,-0.018,0.956,20.07,14.24,36.73,0.00000,0.00000,0.0,0,0*F1B0
$MRC,565,572683,32.70,70.0,1009.63,-0.0,-0.021,-0.022,0.991,-4.19,-4.60,-34.48,0.00000,0.00000,0.0,0,0*6CE0
$MRC,566,573683,32.68,69.5,1009.63,0.0,-0.015,-0.149,0.938,16.88,-14.42,-62.37,0.00000,0.00000,0.0,0,0*F58C
$MRC,567,574683,32.69,69.4,1009.65,-0.2,0.067,0.004,0.909,1.64,2.54,-21.50,0.00000,0.00000,0.0,0,0*8870
$MRC,568,575683,32.69,69.5,1009.61,0.1,-0.021,-0.024,0.917,11.16,-8.79,-58.78,0.00000,0.00000,0.0,0,0*713F
$MRC,569,576683,32.68,69.8,1009.64,-0.1,0.122,-0.125,0.900,10.99,-1.08,-5.21,0.00000,0.00000,0.0,0,0*1A28
$MRC,570,577683,32.69,69.8,1009.66,-0.3,-0.008,0.056,0.946,-7.68,24.33,4.13,0.00000,0.00000,0.0,0,0*EB05
$MRC,571,578683,32.68,69.9,1009.63,-0.1,-0.039,-0.036,0.918,-6.89,3.79,19.93,0.00000,0.00000,0.0,0,0*8587
$MRC,572,579683,32.70,70.0,1009.65,-0.2,-0.036,-0.041,0.905,-2.37,2.27,-7.64,0.00000,0.00000,0.0,0,0*C5B9
$MRC,573,580683,32.72,70.5,1009.64,-0.1,-0.047,-0.043,0.918,0.87,-3.46,-7.32,0.00000,0.00000,0.0,0,0*60B9
$MRC,574,581683,32.72,70.7,1009.65,-0.2,-0.062,-0.040,0.923,3.86,-0.77,7.74,0.00000,0.00000,0.0,0,0*C30C
$MRC,575,582683,32.72,70.6,1009.63,-0.0,-0.090,-0.052,0.925,-0.81,-0.91,-21.61,0.00000,0.00000,0.0,0,0*49C4
$MRC,576,583683,32.73,70.4,1009.63,-0.0,-0.062,-0.064,0.917,-3.24,3.64,-5.97,0.00000,0.00000,0.0,0,0*87AE
$MRC,577,584683,32.74,70.6,1009.65,-0.2,0.008,-0.071,0.915,-3.12,3.47,-5.47,0.00000,0.00000,0.0,0,0*91D9
$MRC,578,585683,32.75,70.8,1009.63,-0.1,0.126,-0.105,0.897,4.64,-4.33,-38.71,0.00000,0.00000,0.0,0,0*48C5
$MRC,579,586683,32.73,70.6,1009.63,-0.0,0.055,0.021,0.888,8.39,-12.82,-20.62,0.00000,0.00000,0.0,0,0*D9A7
$MRC,580,587683,32.75,71.0,1009.62,-0.1,0.015,-0.040,0.915,-1.82,-1.72,-13.18,0.00000,0.00000,0.0,0,0*34DC
$MRC,581,588683,32.78,71.0,1009.65,-0.2,0.026,-0.048,0.919,0.01,1.01,5.22,0.00000,0.00000,0.0,0,0*EB69
$MRC,582,589683,32.79,71.0,1009.63,-0.1,-0.002,-0.024,0.917,-0.68,-0.30,1.29,0.00000,0.00000,0.0,0,0*4644
$MRC,583,590683,32.80,71.5,1009.68,-0.5,0.020,0.002,0.901,10.48,-18.28,-17.62,0.00000,0.00000,0.0,0,0*0EAE
$MRC,584,591683,32.82,71.5,1009.63,-0.1,0.090,-0.059,0.938,-7.04,20.31,-4.16,0.00000,0.00000,0.0,0,0*304C
$MRC,585,592683,32.81,70.9,1009.68,-0.5,-0.034,-0.102,1.066,30.27,0.53,9.05,0.00000,0.00000,0.0,0,0*6732
$MRC,586,593683,32.81,70.6,1009.65,-0.2,-0.133,-0.039,0.836,-9.32,-20.27,-45.04,0.00000,0.00000,0.0,0,0*1353
$MRC,587,594683,32.81,70.0,1009.65,-0.2,-0.162,-0.086,1.191,5.54,19.50,-34.63,0.00000,0.00000,0.0,0,0*EBE4
$MRC,588,595683,32.79,69.6,1009.63,0.0,0.076,0.056,1.003,-29.29,2.10,26.47,0.00000,0.00000,0.0,0,0*B6EF
$MRC,589,596683,32.74,69.4,1009.61,0.1,-0.045,0.042,0.812,-18.52,0.98,12.29,0.00000,0.00000,0.0,0,0*D1FE
$MRC,590,597683,32.75,69.3,1009.63,-0.1,-0.120,-0.008,0.975,-55.53,30.02,49.31,0.00000,0.00000,0.0,0,0*7BFF
$MRC,591,598683,32.75,69.4,1009.60,0.2,-0.094,0.049,0.859,10.09,-2.99,-9.00,0.00000,0.00000,0.0,0,0*0292
$MRC,592,599683,32.75,69.4,1009.59,0.3,-0.091,0.050,0.747,28.84,-18.57,-37.90,0.00000,0.00000,0.0,0,0*5DA6
$MRC,593,600683,32.77,69.5,1009.63,0.0,-0.120,0.035,1.013,24.53,6.25,-32.42,0.00000,0.00000,0.0,0,0*0BC4
$MRC,594,601683,32.76,69.6,1009.63,0.0,0.065,0.103,0.922,9.60,11.73,-19.94,0.00000,0.00000,0.0,0,0*E48F
$MRC,595,602683,32.76,69.5,1009.64,-0.1,-0.038,0.090,1.003,-3.26,-5.21,8.76,0.00000,0.00000,0.0,0,0*7027
$MRC,596,603683,32.76,69.5,1009.62,0.0,-0.043,0.093,0.805,-12.20,12.98,31.13,0.00000,0.00000,0.0,0,0*324C
$MRC,597,604683,32.77,69.3,1009.63,-0.1,-0.181,0.061,0.835,-28.34,1.61,35.45,0.00000,0.00000,0.0,0,0*6B07
$MRC,598,605683,32.77,69.2,1009.62,0.1,-0.235,-0.060,0.959,-19.41,-4.63,15.48,0.00000,0.00000,0.0,0,0*DE72
$MRC,599,606683,32.76,69.1,1009.62,0.1,-0.004,-0.131,0.980,27.61,0.80,10.09,0.00000,0.00000,0.0,0,0*F2F9
$MRC,600,607683,32.75,69.0,1009.63,-0.1,-0.020,0.063,0.796,1.03,-10.71,-7.07,0.00000,0.00000,0.0,0,0*DEEF
$MRC,601,608683,32.74,69.0,1009.63,0.0,-0.056,-0.096,0.887,12.12,-8.22,-31.16,0.00000,0.00000,0.0,0,0*0E97
$MRC,602,609683,32.74,68.8,1009.61,0.1,-0.139,0.083,0.963,-21.06,28.34,-35.33,0.00000,0.00000,0.0,0,0*2004
$MRC,603,610683,32.76,68.9,1009.65,-0.2,0.115,0.018,0.878,21.78,-29.80,-44.23,0.00000,0.00000,0.0,0,0*CB58
$MRC,604,611683,32.78,69.0,1009.63,-0.0,0.039,0.015,1.194,-4.02,23.66,55.98,0.00000,0.00000,0.0,0,0*CC16
$MRC,605,612683,32.78,68.8,1009.61,0.1,0.137,0.119,0.806,-14.54,19.72,34.96,0.00000,0.00000,0.0,0,0*3737
$MRC,606,613683,32.78,68.8,1009.63,-0.0,-0.064,0.083,0.846,-41.96,25.96,52.13,0.00000,0.00000,0.0,0,0*2D7D
$MRC,607,614683,32.79,68.9,1009.64,-0.1,-0.123,0.023,0.884,-12.74,36.60,60.55,0.00000,0.00000,0.0,0,0*5830
$MRC,608,615683,32.79,68.9,1009.63,-0.0,-0.198,0.005,0.836,-24.69,21.79,3.98,0.00000,0.00000,0.0,0,0*983C
$MRC,609,616683,32.80,68.9,1009.62,0.1,-0.232,0.001,0.755,15.81,-42.47,-24.46,0.00000,0.00000,0.0,0,0*B898
$MRC,610,617683,32.80,68.8,1009.63,-0.0,-0.041,-0.038,0.790,29.81,-54.27,-53.38,0.00000,0.00000,0.0,0,0*FB2D
$MRC,611,618683,32.80,68.8,1009.62,0.0,0.004,-0.000,0.855,45.46,-11.47,-75.76,0.00000,0.00000,0.0,0,0*642A
$MRC,612,619683,32.81,68.8,1009.65,-0.2,0.119,0.042,0.972,31.49,-29.43,-52.40,0.00000,0.00000,0.0,0,0*D166
$MRC,613,620683,32.81,68.8,1009.67,-0.3,0.140,0.044,0.944,-14.49,12.83,28.61,0.00000,0.00000,0.0,0,0*CC4E
$MRC,614,621683,32.82,68.7,1009.66,-0.3,0.097,0.075,0.854,-46.58,21.30,80.47,0.00000,0.00000,0.0,0,0*59CB
$MRC,615,622683,32.78,68.7,1009.64,-0.1,-0.150,0.034,0.875,-21.88,7.29,36.13,0.00000,0.00000,0.0,0,0*F34B
$MRC,616,623683,32.76,68.7,1009.63,-0.1,0.041,0.121,0.825,-27.03,-8.01,-4.14,0.00000,0.00000,0.0,0,0*B2DB
$MRC,617,624683,32.73,68.8,1009.63,-0.0,0.145,0.026,0.950,7.87,8.98,17.43,0.00000,0.00000,0.0,0,0*01EA
$MRC,618,625683,32.71,68.9,1009.66,-0.3,0.058,0.065,0.868,-5.53,-9.86,-23.55,0.00000,0.00000,0.0,0,0*CD8D
$MRC,619,626683,32.70,68.9,1009.66,-0.3,0.115,-0.176,0.995,70.15,-27.44,-68.25,0.00000,0.00000,0.0,0,0*7FE0
$MRC,620,627683,32.67,69.1,1009.62,0.0,0.131,-0.079,1.113,-5.56,-10.63,-7.68,0.00000,0.00000,0.0,0,0*640A
$MRC,621,628683,32.67,69.2,1009.61,0.2,-0.029,0.006,0.766,-16.65,15.01,19.89,0.00000,0.00000,0.0,0,0*38B7
$MRC,622,629683,32.69,69.1,1009.63,-0.0,0.126,0.011,0.840,0.80,0.19,-1.62,0.00000,0.00000,0.0,0,0*22E8
$MRC,623,630683,32.67,69.3,1009.61,0.1,-0.059,-0.320,1.195,7.61,13.33,-2.14,0.00000,0.00000,0.0,0,0*9920
$MRC,624,631683,32.68,69.4,1009.65,-0.2,0.070,-0.273,0.940,12.04,-10.41,-145.96,0.00000,0.00000,0.0,0,0*B4FA
$MRC,625,632683,32.68,69.4,1009.60,0.2,-0.144,-0.083,0.905,5.93,-30.48,-18.98,0.00000,0.00000,0.0,0,0*8A52
$MRC,626,633683,32.66,69.3,1009.63,-0.0,0.055,-0.198,0.877,-1.13,6.34,-32.28,0.00000,0.00000,0.0,0,0*4133
$MRC,627,634683,32.66,69.4,1009.58,0.4,-0.050,-0.082,0.887,55.52,34.19,-79.03,0.00000,0.00000,0.0,0,0*0937
$MRC,628,635683,32.65,69.3,1009.62,0.1,-0.124,0.063,0.794,-11.04,-26.33,-55.09,0.00000,0.00000,0.0,0,0*4A4D
$MRC,629,636683,32.64,69.3,1009.64,-0.1,-0.103,-0.198,0.995,12.90,9.87,-96.29,0.00000,0.00000,0.0,0,0*2049
$MRC,630,637683,32.65,69.4,1009.63,-0.0,0.117,-0.109,0.925,5.55,-20.21,25.35,0.00000,0.00000,0.0,0,0*5EDE
$MRC,631,638683,32.60,69.3,1009.70,-0.6,-0.065,-0.272,1.004,-32.95,38.66,84.97,0.00000,0.00000,0.0,0,0*6E55
$MRC,632,639683,32.58,69.4,1009.71,-0.7,-0.030,-0.396,0.752,6.45,-82.73,-7.12,0.00000,0.00000,0.0,0,0*6F79
$MRC,633,640683,32.59,69.5,1009.73,-0.9,-0.235,-0.041,0.812,-37.53,-31.31,-0.77,0.00000,0.00000,0.0,0,0*761D
$MRC,634,641683,32.60,69.6,1009.72,-0.8,-0.225,-0.204,0.887,-19.04,47.29,-3.39,0.00000,0.00000,0.0,0,0*E07C
$MRC,635,642683,32.61,69.6,1009.71,-0.7,-0.227,-0.092,0.838,6.80,-6.18,1.40,0.00000,0.00000,0.0,0,0*1D5B
$MRC,636,643683,32.63,69.5,1009.71,-0.7,-0.183,-0.164,0.886,-0.16,0.22,-0.22,0.00000,0.00000,0.0,0,0*5E1B
$MRC,637,644683,32.62,69.4,1009.73,-0.9,-0.180,-0.161,0.881,-0.14,0.17,0.12,0.00000,0.00000,0.0,0,0*E415
$MRC,638,645683,32.64,69.4,1009.71,-0.7,-0.183,-0.166,0.888,-0.19,-0.01,0.03,0.00000,0.00000,0.0,0,0*9D0C
$MRC,639,646683,32.65,69.4,1009.65,-0.1,-0.181,-0.162,0.892,-0.04,-0.09,0.13,0.00000,0.00000,0.0,0,0*FD31
$MRC,640,647683,32.67,69.4,1009.68,-0.4,-0.182,-0.163,0.893,0.10,-0.38,-0.03,0.00000,0.00000,0.0,0,0*287B
$MRC,641,648683,32.67,69.3,1009.69,-0.5,-0.184,-0.164,0.882,0.06,-0.15,-0.00,0.00000,0.00000,0.0,0,0*4515
$MRC,642,649683,32.67,69.3,1009.65,-0.2,-0.182,-0.160,0.889,-0.05,-0.27,0.06,0.00000,0.00000,0.0,0,0*DC42
$MRC,643,650683,32.69,69.3,1009.68,-0.4,-0.181,-0.162,0.886,-0.13,-0.07,0.10,0.00000,0.00000,0.0,0,0*1123
$MRC,644,651683,32.70,69.3,1009.66,-0.3,-0.184,-0.162,0.884,-0.31,-0.10,-0.05,0.00000,0.00000,0.0,0,0*F9E2
$MRC,645,652683,32.71,69.3,1009.65,-0.2,-0.180,-0.159,0.883,-0.02,-0.16,-0.08,0.00000,0.00000,0.0,0,0*930B
$MRC,646,653683,32.72,69.2,1009.67,-0.4,-0.180,-0.160,0.883,-0.08,0.02,-0.00,0.00000,0.00000,0.0,0,0*C46A
$MRC,647,654683,32.74,69.2,1009.66,-0.2,-0.181,-0.163,0.887,0.01,-0.12,-0.19,0.00000,0.00000,0.0,0,0*F7B9
$MRC,648,655683,32.73,69.2,1009.67,-0.1,-0.184,-0.158,0.888,-0.04,-0.34,0.06,0.00000,0.00000,0.0,0,0*084C
$MRC,649,656683,32.75,69.1,1009.67,-0.4,-0.180,-0.161,0.885,-0.00,0.11,-0.03,0.00000,0.00000,0.0,0,0*AF29
$MRC,650,657683,32.74,69.1,1009.67,-0.4,-0.182,-0.164,0.887,0.01,-0.01,0.03,0.00000,0.00000,0.0,0,0*CC81
$MRC,651,658683,32.74,69.1,1009.69,-0.6,-0.174,-0.164,0.885,0.09,0.28,0.22,0.00000,0.00000,0.0,0,0*AA4E
$MRC,652,659683,32.77,69.1,1009.67,-0.3,-0.182,-0.160,0.887,0.30,-0.05,0.10,0.00000,0.00000,0.0,0,0*5A32
$MRC,653,660683,32.78,69.1,1009.67,-0.4,-0.182,-0.160,0.883,-0.07,0.02,0.09,0.00000,0.00000,0.0,0,0*B082
$MRC,654,661683,32.80,69.0,1009.67,-0.4,-0.177,-0.163,0.893,-0.05,0.19,0.39,0.00000,0.00000,0.0,0,0*4399
$MRC,655,662683,32.81,69.0,1009.70,-0.6,-0.177,-0.165,0.882,-0.14,0.25,0.21,0.00000,0.00000,0.0,0,0*E1D4
$MRC,656,663683,32.82,69.0,1009.70,-0.6,-0.184,-0.164,0.881,-0.26,0.08,0.39,0.00000,0.00000,0.0,0,0*A375
$MRC,657,664683,32.83,69.0,1009.70,-0.6,-0.182,-0.163,0.887,-0.07,0.16,0.47,0.00000,0.00000,0.0,0,0*5380
$MRC,658,665683,32.84,69.0,1009.68,-0.4,-0.184,-0.161,0.885,0.06,-0.16,-0.08,0.00000,0.00000,0.0,0,0*501D
$MRC,659,666683,32.84,68.9,1009.69,-0.5,-0.182,-0.161,0.889,-0.07,-0.05,0.24,0.00000,0.00000,0.0,0,0*DE98
$MRC,660,667683,32.83,68.9,1009.70,-0.6,-0.181,-0.167,0.889,-0.10,0.08,0.07,0.00000,0.00000,0.0,0,0*1E14
$MRC,661,668683,32.84,68.9,1009.70,-0.6,-0.184,-0.161,0.886,-0.07,0.07,-0.02,0.00000,0.00000,0.0,0,0*3E1A
$MRC,662,669683,32.84,68.9,1009.67,-0.4,-0.184,-0.162,0.884,-0.07,-0.13,0.18,0.00000,0.00000,0.0,0,0*D3C7
$MRC,663,670683,32.85,68.9,1009.68,-0.4,-0.184,-0.162,0.891,0.24,0.16,0.04,0.00000,0.00000,0.0,0,0*EDF5
$MRC,664,671683,32.86,68.8,1009.69,-0.5,-0.180,-0.161,0.884,-0.13,-0.09,0.04,0.00000,0.00000,0.0,0,0*08FF
$MRC,665,672683,32.87,68.8,1009.69,-0.5,-0.182,-0.159,0.882,0.13,-0.04,0.56,0.00000,0.00000,0.0,0,0*0A8F
$MRC,666,673683,32.87,68.8,1009.67,-0.4,-0.178,-0.157,0.889,0.07,0.14,0.12,0.00000,0.00000,0.0,0,0*ADF9
$MRC,667,674683,32.88,68.8,1009.67,-0.4,-0.184,-0.161,0.880,0.16,0.11,0.15,0.00000,0.00000,0.0,0,0*C1C1
$MRC,668,675683,32.89,68.8,1009.68,-0.5,-0.180,-0.163,0.880,0.25,0.17,0.16,0.00000,0.00000,0.0,0,0*04D2
$MRC,669,676683,32.89,68.8,1009.69,-0.6,-0.181,-0.164,0.887,0.09,-0.04,0.41,0.00000,0.00000,0.0,0,0*9DC6
$MRC,670,677683,32.91,68.8,1009.70,-0.6,-0.183,-0.163,0.889,-0.36,-0.10,0.03,0.00000,0.00000,0.0,0,0*D1C1
$MRC,671,678683,32.92,68.8,1009.71,-0.7,-0.175,-0.163,0.882,0.03,0.11,-0.03,0.00000,0.00000,0.0,0,0*008B
$MRC,672,679683,32.93,68.8,1009.69,-0.5,-0.178,-0.161,0.889,-0.14,0.07,0.04,0.00000,0.00000,0.0,0,0*D998
$MRC,673,680683,32.94,68.8,1009.68,-0.4,-0.181,-0.157,0.889,-0.36,0.11,0.27,0.00000,0.00000,0.0,0,0*1DF6
$MRC,674,681683,32.95,68.7,1009.70,-0.6,-0.178,-0.163,0.885,0.15,0.31,0.30,0.00000,0.00000,0.0,0,0*F6CB
$MRC,675,682683,32.96,68.7,1009.69,-0.5,-0.184,-0.161,0.889,0.25,0.20,-0.05,0.00000,0.00000,0.0,0,0*A45D
$MRC,676,683683,32.96,68.6,1009.70,-0.6,-0.183,-0.158,0.883,-0.16,0.28,-0.16,0.00000,0.00000,0.0,0,0*8C1F
$MRC,677,684683,32.96,68.6,1009.70,-0.6,-0.183,-0.158,0.889,-0.02,-0.18,0.16,0.00000,0.00000,0.0,0,0*5321
$MRC,678,685683,32.97,68.6,1009.73,-0.9,-0.180,-0.158,0.887,0.09,-0.04,-0.13,0.00000,0.00000,0.0,0,0*A6FE
$MRC,679,686683,32.98,68.6,1009.71,-0.7,-0.183,-0.160,0.888,-0.00,-0.04,0.07,0.00000,0.00000,0.0,0,0*1E3B
$MRC,680,687683,32.98,68.6,1009.69,-0.6,-0.181,-0.158,0.896,0.24,-0.10,0.07,0.00000,0.00000,0.0,0,0*9884
$MRC,681,688683,33.00,68.6,1009.70,-0.6,-0.182,-0.164,0.888,-0.05,-0.09,-0.20,0.00000,0.00000,0.0,0,0*B54F
$MRC,682,689683,33.02,68.5,1009.70,-0.6,-0.181,-0.163,0.889,0.07,0.24,0.35,0.00000,0.00000,0.0,0,0*A1F4
$MRC,683,690683,33.02,68.5,1009.70,-0.6,-0.181,-0.161,0.884,-0.08,0.02,0.21,0.00000,0.00000,0.0,0,0*E2CD
$MRC,684,691683,33.03,68.4,1009.71,-0.7,-0.184,-0.159,0.897,-0.10,-0.09,0.26,0.00000,0.00000,0.0,0,0*6C0B
$MRC,685,692683,33.03,68.4,1009.69,-0.5,-0.182,-0.162,0.887,-0.19,-0.09,0.06,0.00000,0.00000,0.0,0,0*A18F
$MRC,686,693683,33.03,68.4,1009.70,-0.6,-0.177,-0.169,0.886,0.04,0.04,0.06,0.00000,0.00000,0.0,0,0*0424
$MRC,687,694683,33.03,68.4,1009.71,-0.7,-0.181,-0.161,0.882,0.06,-0.01,0.03,0.00000,0.00000,0.0,0,0*9DFB
$MRC,688,695683,33.05,68.4,1009.71,-0.7,-0.180,-0.160,0.893,0.09,0.05,0.03,0.00000,0.00000,0.0,0,0*3B40
$MRC,689,696683,33.05,68.3,1009.70,-0.6,-0.180,-0.161,0.884,-0.04,0.08,0.16,0.00000,0.00000,0.0,0,0*6666
$MRC,690,697683,33.04,68.3,1009.70,-0.6,-0.180,-0.161,0.894,-0.20,0.05,0.36,0.00000,0.00000,0.0,0,0*400D
$MRC,691,698683,33.05,68.3,1009.71,-0.7,-0.181,-0.161,0.886,-0.05,0.01,-0.08,0.00000,0.00000,0.0,0,0*C077
$MRC,692,699683,33.06,68.3,1009.71,-0.7,-0.181,-0.164,0.889,-0.07,-0.04,0.04,0.00000,0.00000,0.0,0,0*5179
$MRC,693,700683,33.07,68.3,1009.71,-0.7,-0.183,-0.160,0.888,-0.10,-0.12,-0.00,0.00000,0.00000,0.0,0,0*5A24
$MRC,694,701683,33.08,68.3,1009.70,-0.6,-0.183,-0.159,0.895,0.15,0.20,0.38,0.00000,0.00000,0.0,0,0*AC42
$MRC,695,702683,33.09,68.3,1009.71,-0.7,-0.180,-0.161,0.882,0.07,0.28,0.12,0.00000,0.00000,0.0,0,0*E143
$MRC,696,703683,33.10,68.3,1009.71,-0.7,-0.181,-0.159,0.893,0.25,-0.13,0.16,0.00000,0.00000,0.0,0,0*F447
$MRC,697,704683,33.10,68.3,1009.72,-0.8,-0.179,-0.156,0.891,-0.05,-0.02,0.12,0.00000,0.00000,0.0,0,0*63FB
$MRC,698,705683,33.09,68.2,1009.74,-0.9,-0.179,-0.163,0.886,-0.16,0.01,0.09,0.00000,0.00000,0.0,0,0*BD0C
$MRC,699,706683,33.10,68.2,1009.74,-0.9,-0.176,-0.161,0.882,-0.19,-0.12,0.16,0.00000,0.00000,0.0,0,0*C90F
$MRC,700,707683,33.12,68.2,1009.70,-0.6,-0.180,-0.165,0.874,0.10,-0.18,-0.17,0.00000,0.00000,0.0,0,0*60E8
$MRC,701,708683,33.11,68.2,1009.72,-0.8,-0.181,-0.161,0.885,-0.17,-0.09,-0.23,0.00000,0.00000,0.0,0,0*16FB
$MRC,702,709683,33.12,68.2,1009.72,-0.8,-0.182,-0.161,0.886,0.18,-0.02,0.21,0.00000,0.00000,0.0,0,0*29E4
$MRC,703,710683,33.13,68.2,1009.71,-0.7,-0.181,-0.161,0.892,0.12,0.11,-0.03,0.00000,0.00000,0.0,0,0*8731
$MRC,704,711683,33.13,68.2,1009.70,-0.6,-0.182,-0.163,0.885,-0.05,0.05,0.22,0.00000,0.00000,0.0,0,0*C08D
$MRC,705,712683,33.12,68.2,1009.74,-0.9,-0.180,-0.166,0.887,-0.10,0.20,-0.08,0.00000,0.00000,0.0,0,0*43B3
$MRC,706,713683,33.13,68.1,1009.73,-0.8,-0.181,-0.162,0.884,-0.02,0.37,0.27,0.00000,0.00000,0.0,0,0*F397
$MRC,707,714683,33.14,68.1,1009.74,-0.9,-0.180,-0.165,0.880,-0.02,-0.01,0.04,0.00000,0.00000,0.0,0,0*BD4B
$MRC,708,715683,33.15,68.1,1009.72,-0.8,-0.178,-0.161,0.885,-0.14,0.24,0.24,0.00000,0.00000,0.0,0,0*07DC
$MRC,709,716683,33.17,68.2,1009.71,-0.7,-0.181,-0.161,0.890,0.15,0.04,0.04,0.00000,0.00000,0.0,0,0*2865
$MRC,710,717683,33.18,68.2,1009.72,-0.8,-0.184,-0.162,0.885,0.03,0.04,0.06,0.00000,0.00000,0.0,0,0*F398
$MRC,711,718683,33.17,68.1,1009.73,-0.9,-0.180,-0.161,0.886,-0.04,0.13,0.22,0.00000,0.00000,0.0,0,0*34FD
$MRC,712,719683,33.17,68.1,1009.71,-0.7,-0.181,-0.163,0.888,0.13,-0.09,0.01,0.00000,0.00000,0.0,0,0*F500
$MRC,713,720683,33.17,68.0,1009.73,-0.9,-0.179,-0.157,0.889,-0.08,0.13,0.07,0.00000,0.00000,0.0,0,0*4B2B
$MRC,714,721683,33.17,68.0,1009.72,-0.8,-0.179,-0.161,0.887,-0.08,-0.07,0.33,0.00000,0.00000,0.0,0,0*0099
$MRC,715,722683,33.18,68.0,1009.71,-0.7,-0.182,-0.162,0.894,-0.11,-0.27,0.30,0.00000,0.00000,0.0,0,0*E775
$MRC,716,723683,33.19,68.0,1009.73,-0.8,-0.179,-0.165,0.884,-0.14,0.02,-0.02,0.00000,0.00000,0.0,0,0*7291
$MRC,717,724683,33.20,68.0,1009.71,-0.7,-0.178,-0.160,0.891,0.13,-0.05,0.07,0.00000,0.00000,0.0,0,0*65F5
$MRC,718,725683,33.20,68.0,1009.75,-1.0,-0.184,-0.164,0.893,0.04,0.13,0.10,0.00000,0.00000,0.0,0,0*97D4
$MRC,719,726683,33.20,68.0,1009.73,-0.9,-0.179,-0.161,0.886,0.12,0.07,-0.02,0.00000,0.00000,0.0,0,0*1EF6
$MRC,720,727683,33.21,68.0,1009.73,-0.9,-0.183,-0.160,0.888,-0.05,-0.05,0.06,0.00000,0.00000,0.0,0,0*8BFA
$MRC,721,728683,33.23,68.0,1009.75,-1.0,-0.178,-0.161,0.886,0.29,0.11,0.04,0.00000,0.00000,0.0,0,0*68DF
$MRC,722,729683,33.23,68.0,1009.75,-1.0,-0.178,-0.162,0.899,0.29,-0.15,0.09,0.00000,0.00000,0.0,0,0*FE0D
$MRC,723,730683,33.25,68.0,1009.73,-0.8,-0.183,-0.163,0.882,-0.02,0.05,0.35,0.00000,0.00000,0.0,0,0*08B4
$MRC,724,731683,33.26,68.0,1009.73,-0.9,-0.179,-0.163,0.886,0.07,0.07,0.19,0.00000,0.00000,0.0,0,0*4F66
$MRC,725,732683,33.25,68.0,1009.74,-0.9,-0.181,-0.163,0.886,0.04,0.16,0.18,0.00000,0.00000,0.0,0,0*20CA
$MRC,726,733683,33.25,67.9,1009.75,-1.0,-0.183,-0.158,0.885,0.10,-0.18,0.13,0.00000,0.00000,0.0,0,0*946B
$MRC,727,734683,33.23,67.9,1009.73,-0.8,-0.180,-0.164,0.888,0.07,-0.04,0.18,0.00000,0.00000,0.0,0,0*D9C0
$MRC,728,735683,33.23,67.8,1009.76,-1.1,-0.186,-0.156,0.887,2.59,0.13,0.87,0.00000,0.00000,0.0,0,0*987E
$MRC,729,736683,33.25,67.8,1009.74,-1.0,-0.257,-0.005,0.827,24.58,47.53,14.87,0.00000,0.00000,0.0,0,0*1DB2
$MRC,730,737683,33.24,68.1,1009.73,-0.8,-0.929,-0.263,-0.283,-29.94,22.69,-14.77,0.00000,0.00000,0.0,0,0*3820
$MRC,731,738683,33.25,68.2,1009.72,-0.8,-0.968,-0.130,-0.157,6.61,-36.22,20.29,0.00000,0.00000,0.0,0,0*AD86
$MRC,732,739683,33.26,68.3,1009.72,-0.8,-0.809,0.031,0.413,-23.82,-36.04,0.47,0.00000,0.00000,0.0,0,0*AFEC
$MRC,733,740683,33.24,68.3,1009.73,-0.8,-0.148,0.089,0.904,15.83,-47.58,6.15,0.00000,0.00000,0.0,0,0*06A9
$MRC,734,741683,33.23,68.6,1009.66,-0.3,0.189,0.019,0.834,27.31,26.57,45.74,0.00000,0.00000,0.0,0,0*02FC
$MRC,735,742683,33.24,68.9,1009.69,-0.5,-0.044,-0.110,0.924,-12.00,2.25,24.29,0.00000,0.00000,0.0,0,0*FE6A
$MRC,736,743683,33.24,69.1,1009.68,-0.5,0.184,0.000,0.792,-71.21,25.46,-9.94,0.00000,0.00000,0.0,0,0*3D51
$MRC,737,744683,33.25,68.8,1009.70,-0.6,-0.018,-0.251,0.881,14.84,18.62,4.90,0.00000,0.00000,0.0,0,0*C53E
$MRC,738,745683,33.26,68.8,1009.71,-0.7,-0.058,-0.236,0.924,-8.52,-9.84,9.23,0.00000,0.00000,0.0,0,0*44F3
$MRC,739,746683,33.26,69.2,1009.70,-0.6,-0.051,-0.177,0.893,0.97,2.53,18.68,0.00000,0.00000,0.0,0,0*201E
$MRC,740,747683,33.24,69.0,1009.66,-0.3,-0.037,-0.107,0.916,-5.35,9.90,66.50,0.00000,0.00000,0.0,0,0*F81F
$MRC,741,748683,33.24,68.7,1009.66,-0.3,-0.030,-0.079,0.871,-34.00,-3.32,23.86,0.00000,0.00000,0.0,0,0*33EA
$MRC,742,749683,33.23,68.4,1009.71,-0.7,-0.017,-0.083,0.871,3.25,-3.35,4.21,0.00000,0.00000,0.0,0,0*5F09
$MRC,743,750683,33.17,68.3,1009.70,-0.6,-0.097,-0.146,0.891,18.30,-3.54,-28.43,0.00000,0.00000,0.0,0,0*DE76
$MRC,744,751683,33.18,68.3,1009.67,-0.4,-0.144,-0.249,0.884,11.74,-19.73,2.03,0.00000,0.00000,0.0,0,0*08A2
$MRC,745,752683,33.17,68.2,1009.70,-0.6,-0.165,-0.110,0.921,15.60,12.08,-2.60,0.00000,0.00000,0.0,0,0*8F0D
$MRC,746,753683,33.16,68.4,1009.68,-0.4,-0.072,-0.143,0.910,-11.20,-0.88,1.68,0.00000,0.00000,0.0,0,0*1F8B
$MRC,747,754683,33.15,68.8,1009.65,-0.2,0.057,-0.261,0.937,-32.94,-4.48,30.64,0.00000,0.00000,0.0,0,0*A90F
$MRC,748,755683,33.15,68.6,1009.67,-0.3,0.109,-0.051,0.936,-31.45,-28.82,-54.94,0.00000,0.00000,0.0,0,0*3DE0
$MRC,749,756683,33.15,68.6,1009.69,-0.5,0.067,-0.159,0.980,-16.98,9.95,-32.89,0.00000,0.00000,0.0,0,0*C112
$MRC,750,757683,33.13,68.5,1009.71,-0.7,0.215,-0.213,0.937,13.26,18.95,7.90,0.00000,0.00000,0.0,0,0*F456
$MRC,751,758683,33.13,68.5,1009.69,-0.6,-0.089,-0.198,0.912,23.57,29.32,-74.77,0.00000,0.00000,0.0,0,0*BAEF
$MRC,752,759683,33.13,68.6,1009.69,-0.5,-0.110,-0.294,0.900,37.72,1.29,-63.53,0.00000,0.00000,0.0,0,0*C1B4
$MRC,753,760683,33.15,68.7,1009.69,-0.5,-0.105,-0.148,0.853,56.32,-9.25,-157.61,0.00000,0.00000,0.0,0,0*868C
$MRC,754,761683,33.14,68.7,1009.71,-0.7,-0.111,-0.091,0.834,26.71,19.93,-98.80,0.00000,0.00000,0.0,0,0*47A5
$MRC,755,762683,33.11,68.5,1009.70,-0.6,-0.163,0.002,0.956,21.98,1.30,15.14,0.00000,0.00000,0.0,0,0*C3EC
$MRC,756,763683,33.11,68.5,1009.70,-0.6,-0.079,-0.109,0.865,4.44,-12.31,-12.02,0.00000,0.00000,0.0,0,0*6CDF
$MRC,757,764683,33.09,68.4,1009.68,-0.5,-0.185,-0.169,0.903,6.41,0.28,-48.07,0.00000,0.00000,0.0,0,0*13FD
$MRC,758,765683,33.09,68.4,1009.70,-0.6,-0.066,-0.188,0.936,21.71,-23.20,-32.94,0.00000,0.00000,0.0,0,0*C59F
$MRC,759,766683,33.09,68.5,1009.72,-0.8,0.024,-0.138,0.947,7.32,-9.00,3.19,0.00000,0.00000,0.0,0,0*D890
$MRC,760,767683,33.08,68.5,1009.70,-0.6,-0.062,-0.110,0.999,2.15,-18.07,-6.37,0.00000,0.00000,0.0,0,0*AEF7
$MRC,761,768683,33.07,68.5,1009.67,-0.4,-0.015,-0.079,0.778,-5.52,2.39,16.00,0.00000,0.00000,0.0,0,0*7D49
$MRC,762,769683,33.06,68.5,1009.69,-0.6,-0.196,-0.035,0.825,-11.84,4.24,49.86,0.00000,0.00000,0.0,0,0*E688
$MRC,763,770683,33.04,68.6,1009.70,-0.6,-0.253,-0.080,0.924,-45.70,33.75,40.09,0.00000,0.00000,0.0,0,0*CC83
$MRC,764,771683,33.04,68.5,1009.72,-0.8,-0.156,0.010,0.997,8.04,-2.77,-9.68,0.00000,0.00000,0.0,0,0*CC11
$MRC,765,772683,33.03,68.5,1009.68,-0.5,-0.037,0.005,0.703,31.95,-9.41,-32.63,0.00000,0.00000,0.0,0,0*1B20
$MRC,766,773683,33.02,68.5,1009.69,-0.6,-0.150,-0.116,0.859,5.02,-2.10,-22.43,0.00000,0.00000,0.0,0,0*8986
$MRC,767,774683,33.03,68.5,1009.66,-0.3,-0.230,-0.210,1.102,-6.86,2.05,-18.20,0.00000,0.00000,0.0,0,0*4B3A
$MRC,768,775683,33.03,68.5,1009.69,-0.5,-0.033,-0.158,1.076,8.45,-5.78,9.25,0.00000,0.00000,0.0,0,0*1BE9
$MRC,769,776683,33.03,68.5,1009.69,-0.5,0.067,-0.050,0.878,-24.14,0.25,30.65,0.00000,0.00000,0.0,0,0*46D6
$MRC,770,777683,33.02,68.5,1009.71,-0.7,-0.054,-0.065,0.891,-29.68,16.74,46.87,0.00000,0.00000,0.0,0,0*58C8
$MRC,771,778683,33.00,68.6,1009.69,-0.5,-0.220,-0.235,0.963,-61.68,-8.85,11.78,0.00000,0.00000,0.0,0,0*A9A1
$MRC,772,779683,32.98,68.7,1009.69,-0.6,-0.155,-0.001,0.931,-34.54,-6.59,-1.91,0.00000,0.00000,0.0,0,0*89CF
$MRC,773,780683,32.95,68.8,1009.67,-0.3,-0.055,0.016,0.772,11.87,-19.47,-41.36,0.00000,0.00000,0.0,0,0*2E7D
$MRC,774,781683,32.95,68.8,1009.68,-0.4,-0.004,0.008,0.903,21.66,19.08,-25.59,0.00000,0.00000,0.0,0,0*C3A2
$MRC,775,782683,32.92,68.9,1009.71,-0.7,-0.007,-0.113,0.999,22.16,-23.84,-5.32,0.00000,0.00000,0.0,0,0*8C0D
$MRC,776,783683,32.91,68.9,1009.72,-0.8,-0.097,-0.036,1.035,-11.32,2.74,17.19,0.00000,0.00000,0.0,0,0*B691
$MRC,777,784683,32.89,68.9,1009.69,-0.6,-0.130,-0.112,0.841,-11.18,-0.65,33.51,0.00000,0.00000,0.0,0,0*7CDA
$MRC,778,785683,32.87,68.9,1009.69,-0.5,-0.200,-0.075,0.843,-3.73,2.34,18.39,0.00000,0.00000,0.0,0,0*81CE
$MRC,779,786683,32.85,69.0,1009.69,-0.6,-0.215,-0.008,0.949,-8.04,-5.31,-0.58,0.00000,0.00000,0.0,0,0*2BDF
$MRC,780,787683,32.84,69.0,1009.67,-0.4,-0.043,-0.033,0.715,25.55,-25.67,-45.00,0.00000,0.00000,0.0,0,0*AF42
$MRC,781,788683,32.82,69.1,1009.69,-0.5,-0.002,0.005,0.901,11.67,3.59,-37.23,0.00000,0.00000,0.0,0,0*54EA
$MRC,782,789683,32.80,69.1,1009.70,-0.6,-0.009,-0.200,1.046,14.21,-17.05,-9.24,0.00000,0.00000,0.0,0,0*5BDE
$MRC,783,790683,32.77,69.2,1009.70,-0.6,0.064,-0.142,0.863,-32.78,-16.19,27.54,0.00000,0.00000,0.0,0,0*BFEA
$MRC,784,791683,32.74,69.3,1009.66,-0.3,0.033,0.139,0.875,4.35,-10.25,-5.97,0.00000,0.00000,0.0,0,0*9FF9
$MRC,785,792683,32.71,69.4,1009.68,-0.5,0.095,0.016,1.004,1.42,-18.18,11.28,0.00000,0.00000,0.0,0,0*8160
$MRC,786,793683,32.70,69.5,1009.67,-0.3,0.048,0.022,0.823,11.17,7.03,-12.39,0.00000,0.00000,0.0,0,0*D380
